log_sequence,timestamp,experiment,practice,experiment_start_time,experiment_end_time,experiment_elapsed_time,subject_id,subject_age,subject_gender,subject_handedness,condition,target_stimulus,target_position,non_target_stimulus,non_target_position,stimulus_a_times_displayed,stimulus_b_times_displayed,trial_type,trial_subtype,trial_sequence,trial_start_time,trial_end_time,trial_elapsed_time,correct,response_time,response_time_average,velocity_average,distance_step_average,distance_total,distance_direct,angle_direct,timestamps_tracking,xpos_tracking,ypos_tracking,velocity_tracking,distance_tracking,angle_tracking,fullscreen,viewport_width,viewport_height,device_dpi,device_info
0,2023-09-28 14:23:04.697,CandyCandle,null,2023-09-28T14:22:55.628,2023-09-28T14:27:40.739,9069,205,23,female,m,experimental,cat,Target.a,printer,Target.b,null,null,control,control,0,2023-09-28 14:23:04.408,2023-09-28 14:23:04.697,290,true,68000,Infinity,0.000402279928500566,null,33.00665327141926,32.7566787083184,0.05149382346406581,"201,240,259,269","[239, 221, 214, 207]","[185, 183, 181, 178]","[0, 0.00046437872503268807, 0.00038316367838318513, 0.0007615773105863909]","[0, 18.110770276274835, 7.280109889280518, 7.615773105863909]","[0, 0.03289304001225458, 0.010432738852323367, 0.008168044599465024]",false,1440,820,320,"{browserName: BrowserName.safari, appCodeName: Mozilla, appName: Netscape, appVersion: 5.0 (Macintosh; Intel Mac OS X 10_15_7) AppleWebKit/605.1.15 (KHTML, like Gecko) Version/16.6 Safari/605.1.15, deviceMemory: null, language: da-DK, languages: [da-DK], platform: MacIntel, product: Gecko, productSub: 20030107, userAgent: Mozilla/5.0 (Macintosh; Intel Mac OS X 10_15_7) AppleWebKit/605.1.15 (KHTML, like Gecko) Version/16.6 Safari/605.1.15, vendor: Apple Computer, Inc., vendorSub: , hardwareConcurrency: 4, maxTouchPoints: 0}"
1,2023-09-28 14:23:08.333,CandyCandle,null,2023-09-28T14:22:55.628,2023-09-28T14:27:40.739,12705,205,23,female,m,experimental,donut,Target.b,shield,Target.a,null,null,control,control,0,2023-09-28 14:23:07.112,2023-09-28 14:23:08.333,1221,true,1045000,1113001,0.0015245353032812639,null,624.2995527243473,571.6082574630985,0.5441728745087263,"146,162,179,196,214,230,246,264,279,295,314,329,346,364,380,396,629,666,700,730,765,797,827,858,860,896,925,955,998,1060,1095,1123,1126,1165,1191","[721, 721, 721, 721, 721, 721, 721, 721, 720, 719, 717, 715, 713, 712, 710, 709, 707, 708, 711, 716, 723, 731, 735, 741, 743, 745, 746, 747, 748, 753, 768, 858, 933, 1007, 1081]","[659, 653, 644, 634, 626, 618, 610, 603, 594, 586, 579, 573, 567, 562, 558, 554, 524, 520, 516, 509, 502, 494, 490, 484, 481, 480, 479, 477, 477, 473, 463, 389, 327, 268, 215]","[0, 0.000375, 0.0005294117647058823, 0.000588235294117647, 0.00044444444444444447, 0.0005, 0.0005, 0.00038888888888888887, 0.0006036923425424944, 0.0005038911092686594, 0.00038316367838318513, 0.00042163702135578394, 0.0003720326659021623, 0.0002832788618662658, 0.00027950849718747374, 0.00025769410160110377, 0.00012904117062981037, 0.0001114352871788557, 0.00014705882352941175, 0.00028674417556808754, 0.000282842712474619, 0.0003535533905932738, 0.00018856180831641268, 0.0002737187540076958, 0.0018027756377319946, 0.00006211299937499417, 0.000048765984909417076, 0.00007453559924999299, 0.00002325581395348837, 0.00010327619737794917, 0.0005150787536377128, 0.004161289046751288, 0.032436262286384215, 0.0024267032964268398, 0.003500845206484187]","[0, 6, 9, 10, 8, 8, 8, 7, 9.055385138137417, 8.06225774829855, 7.280109889280518, 6.324555320336759, 6.324555320336759, 5.0990195135927845, 4.47213595499958, 4.123105625617661, 30.066592756745816, 4.123105625617661, 5, 8.602325267042627, 9.899494936611665, 11.313708498984761, 5.656854249492381, 8.48528137423857, 3.605551275463989, 2.23606797749979, 1.4142135623730951, 2.23606797749979, 1, 6.4031242374328485, 18.027756377319946, 116.51609330903607, 97.30878685915265, 94.64142856064674, 91.02197536858887]","[0, 0.0045528476117733885, 0.006900343809308536, 0.007768093475869921, 0.006291880210250467, 0.0063613818710224, 0.00643151807303218, 0.005685603806621675, 0.006709105514403341, 0.005966913257740246, 0.004516725502807451, 0.003723239650420737, 0.0037666681017760944, 0.0036281623666984775, 0.002104704894514703, 0.0028085319535889977, 0.025465747253764468, 0.004336122757429158, 0.0056912103815450425, 0.009792098771114945, 0.011090020324780908, 0.012620047787224541, 0.006287248182782407, 0.009401164580321881, 0.0040734194200505785, 0.0021735909116117917, 0.0015591378373058667, 0.0025084421357511764, 0.0006066501858485533, 0.006816016341687324, 0.018341032261364007, 0.11686200977975461, 0.08855670595471962, 0.07699657162134009, 0.06377991792056165]",false,1440,820,320,"{browserName: BrowserName.safari, appCodeName: Mozilla, appName: Netscape, appVersion: 5.0 (Macintosh; Intel Mac OS X 10_15_7) AppleWebKit/605.1.15 (KHTML, like Gecko) Version/16.6 Safari/605.1.15, deviceMemory: null, language: da-DK, languages: [da-DK], platform: MacIntel, product: Gecko, productSub: 20030107, userAgent: Mozilla/5.0 (Macintosh; Intel Mac OS X 10_15_7) AppleWebKit/605.1.15 (KHTML, like Gecko) Version/16.6 Safari/605.1.15, vendor: Apple Computer, Inc., vendorSub: , hardwareConcurrency: 4, maxTouchPoints: 0}"
2,2023-09-28 14:23:13.668,CandyCandle,null,2023-09-28T14:22:55.628,2023-09-28T14:27:40.739,18040,205,23,female,m,experimental,gift,Target.a,barrel,Target.b,null,null,control,control,0,2023-09-28 14:23:13.461,2023-09-28 14:23:13.668,207,true,20000,566501,0.0002850438562747845,null,11.40175425099138,11.40175425099138,0.004697675052009064,"133,153","[265, 256]","[282, 275]","[0, 0.000570087712549569]","[0, 11.40175425099138]","[0, 0.004697675052009064]",false,1440,820,320,"{browserName: BrowserName.safari, appCodeName: Mozilla, appName: Netscape, appVersion: 5.0 (Macintosh; Intel Mac OS X 10_15_7) AppleWebKit/605.1.15 (KHTML, like Gecko) Version/16.6 Safari/605.1.15, deviceMemory: null, language: da-DK, languages: [da-DK], platform: MacIntel, product: Gecko, productSub: 20030107, userAgent: Mozilla/5.0 (Macintosh; Intel Mac OS X 10_15_7) AppleWebKit/605.1.15 (KHTML, like Gecko) Version/16.6 Safari/605.1.15, vendor: Apple Computer, Inc., vendorSub: , hardwareConcurrency: 4, maxTouchPoints: 0}"
3,2023-09-28 14:23:17.236,CandyCandle,null,2023-09-28T14:22:55.628,2023-09-28T14:27:40.739,21608,205,23,female,m,experimental,rainbow,Target.b,shield,Target.a,null,null,control,control,0,2023-09-28 14:23:15.931,2023-09-28 14:23:17.236,1305,true,1131000,754667.6666666666,0.0011018576260130681,null,1108.5159811168528,768.7684957124609,0.5865174076469749,"147,164,181,196,214,230,247,263,280,297,314,484,516,549,580,612,621,740,771,798,831,868,897,929,966,994,1024,1054,1084,1119,1150,1182,1211,1251,1278","[712, 712, 712, 711, 711, 709, 707, 703, 699, 694, 687, 679, 583, 573, 570, 570, 571, 571, 571, 571, 573, 578, 589, 766, 862, 980, 1238, 1274, 1316, 1321, 1330, 1331, 1338, 1340, 1341]","[666, 662, 654, 644, 633, 621, 608, 594, 580, 566, 553, 541, 445, 438, 434, 433, 433, 432, 431, 428, 405, 399, 393, 367, 340, 302, 231, 226, 224, 224, 224, 224, 224, 224, 224]","[0, 0.00023529411764705883, 0.00047058823529411766, 0.000669991708074726, 0.0006111111111111111, 0.0007603453162872775, 0.0007737027316450533, 0.0009100137361600648, 0.0008564835163859433, 0.0008744746321952062, 0.0008685190035431411, 0.00008483650059915268, 0.004242640687119285, 0.0003698956247192031, 0.00016129032258064516, 0.00003125, 0.00011111111111111112, 0.000008403361344537815, 0.000032258064516129034, 0.00011111111111111112, 0.0006995997806433452, 0.00021108782907855821, 0.00043206772710833335, 0.005590606658717817, 0.0026952600224748103, 0.00442741920494621, 0.008919703532691605, 0.0012115187896924165, 0.0014015864027752426, 0.00014285714285714287, 0.00029032258064516127, 0.00003125, 0.0002413793103448276, 0.00005, 0.000037037037037037037]","[0, 4, 8, 10.04987562112089, 11, 12.165525060596439, 13.152946437965905, 14.560219778561036, 14.560219778561036, 14.866068747318506, 14.7648230602334, 14.422205101855956, 135.7645019878171, 12.206555615733702, 5, 1, 1, 1, 1, 3, 23.08679276123039, 7.810249675906654, 12.529964086141668, 178.89941307897016, 99.72462083156798, 123.96773773849388, 267.5911059807482, 36.345563690772494, 42.04759208325728, 5, 9, 1, 7, 2, 1]","[0, 0.003004730173850463, 0.0060601965645364665, 0.006972007176251462, 0.008564432782068839, 0.008098423920101077, 0.009074305644202977, 0.00869965804875405, 0.008931271267313098, 0.008465643002588388, 0.006406792264168134, 0.004989209509176883, 0.02080748730111913, 0.0006975832991037893, 0.0018927715241215037, 0.0011114963190345891, 0.0008441218445463291, 0.001112849547509692, 0.0011147266253726102, 0.0033554620409325595, 0.0279414917609813, 0.011085426463508378, 0.015799621946456614, 0.141596070064577, 0.07110143454738489, 0.07676769419991569, 0.11445915648915025, 0.00890233002867323, 0.006970674632283757, 0.0006261837970649238, 0.0011155954126051395, 0.00012304947289252968, 0.0008563371789145277, 0.00024306926572090554, 0.00012127013038936036]",false,1440,820,320,"{browserName: BrowserName.safari, appCodeName: Mozilla, appName: Netscape, appVersion: 5.0 (Macintosh; Intel Mac OS X 10_15_7) AppleWebKit/605.1.15 (KHTML, like Gecko) Version/16.6 Safari/605.1.15, deviceMemory: null, language: da-DK, languages: [da-DK], platform: MacIntel, product: Gecko, productSub: 20030107, userAgent: Mozilla/5.0 (Macintosh; Intel Mac OS X 10_15_7) AppleWebKit/605.1.15 (KHTML, like Gecko) Version/16.6 Safari/605.1.15, vendor: Apple Computer, Inc., vendorSub: , hardwareConcurrency: 4, maxTouchPoints: 0}"
4,2023-09-28 14:23:20.290,CandyCandle,null,2023-09-28T14:22:55.628,2023-09-28T14:27:40.739,24663,205,23,female,m,experimental,cloud,Target.b,spoon,Target.a,null,null,phono,prime,0,2023-09-28 14:23:19.320,2023-09-28 14:23:20.290,970,true,804000,767001,0.0021573652417593097,null,734.8884468562849,663.2563606932089,0.570188984018041,"140,158,174,191,207,224,241,257,398,416,434,448,450,469,473,499,517,523,569,573,604,607,635,640,671,674,706,708,738,757,759,792,823,843,845,871,893,921,942,944","[717, 717, 717, 717, 717, 717, 717, 717, 717, 717, 716, 716, 716, 716, 716, 716, 716, 716, 716, 716, 716, 716, 717, 717, 718, 718, 719, 722, 725, 730, 742, 801, 849, 904, 957, 1010, 1107, 1156, 1186, 1207]","[639, 628, 613, 596, 580, 568, 559, 551, 545, 522, 519, 516, 512, 509, 506, 504, 503, 502, 501, 500, 499, 498, 496, 493, 491, 487, 482, 477, 471, 466, 455, 409, 370, 328, 290, 258, 218, 204, 197, 192]","[0, 0.0006111111111111111, 0.0009375, 0.001, 0.001, 0.0007058823529411765, 0.0005294117647058823, 0.0005, 0.000042553191489361704, 0.0012777777777777779, 0.00017568209223157663, 0.00021428571428571427, 0.002, 0.00015789473684210527, 0.00075, 0.00007692307692307693, 0.00005555555555555556, 0.00016666666666666666, 0.00002173913043478261, 0.00025, 0.000032258064516129034, 0.0003333333333333333, 0.0000798595706249925, 0.0006, 0.00007213122508063838, 0.0013333333333333333, 0.0001593443597997745, 0.0029154759474226506, 0.00022360679774997898, 0.00037216146378239343, 0.008139410298049854, 0.0022670636502143135, 0.001995051109169836, 0.0034601300553591913, 0.03260751447136074, 0.0023812010295637086, 0.004769262811860449, 0.0018200274723201295, 0.0014669449334047012, 0.010793516572461451]","[0, 11, 15, 17, 16, 12, 9, 8, 6, 23, 3.1622776601683795, 3, 4, 3, 3, 2, 1, 1, 1, 1, 1, 1, 2.23606797749979, 3, 2.23606797749979, 4, 5.0990195135927845, 5.830951894845301, 6.708203932499369, 7.0710678118654755, 16.278820596099706, 74.81310045707235, 61.84658438426491, 69.20260110718382, 65.21502894272147, 61.91122676865643, 104.92378186092989, 50.96076922496363, 30.805843601498726, 21.587033144922902]","[0, 0.008615871249088075, 0.011962016719832625, 0.013859116217384643, 0.013342327127711311, 0.010199651264652217, 0.007759575187608145, 0.006977157129889125, 0.005282471149841337, 0.020647495685993125, 0.0020770348435998607, 0.0027522160988844705, 0.003686676189661715, 0.0027778281092697035, 0.0027888425639588854, 0.0018653584033562426, 0.000934520616270359, 0.0009357492806251104, 0.0009369787275563608, 0.0009382089505559079, 0.0009394399432658856, 0.0009406716987696855, 0.002538199131193796, 0.002835415282805815, 0.002546009727268681, 0.003805764773116818, 0.005428881810387381, 0.006729917940023702, 0.00770318814988147, 0.007986623926714497, 0.01807177624154754, 0.0779734593146637, 0.06111250617000047, 0.06292813554095969, 0.05382570653837761, 0.044137286845956004, 0.05565668982495693, 0.01976838943203751, 0.010070492686347904, 0.006851333524307665]",false,1440,820,320,"{browserName: BrowserName.safari, appCodeName: Mozilla, appName: Netscape, appVersion: 5.0 (Macintosh; Intel Mac OS X 10_15_7) AppleWebKit/605.1.15 (KHTML, like Gecko) Version/16.6 Safari/605.1.15, deviceMemory: null, language: da-DK, languages: [da-DK], platform: MacIntel, product: Gecko, productSub: 20030107, userAgent: Mozilla/5.0 (Macintosh; Intel Mac OS X 10_15_7) AppleWebKit/605.1.15 (KHTML, like Gecko) Version/16.6 Safari/605.1.15, vendor: Apple Computer, Inc., vendorSub: , hardwareConcurrency: 4, maxTouchPoints: 0}"
5,2023-09-28 14:23:23.785,CandyCandle,null,2023-09-28T14:22:55.628,2023-09-28T14:27:40.739,28158,205,23,female,m,experimental,cloud,Target.b,cactus,Target.a,null,null,phono,prime,0,2023-09-28 14:23:22.384,2023-09-28 14:23:23.785,1402,true,1236000,860801,0.001954104337046094,null,1304.7118512401737,657.0722943481942,0.5638436133141115,"163,168,185,201,218,235,252,267.999,285,302,402,416.999,435,469,493.999,500.999,519,552,581,585,609,618,636,669,692,713,729,749,773,785,802,818,835,868,885,916.999,940,952,969,999,1000.999,1017.999,1040,1052,1070,1103,1124,1135,1151,1184,1200,1201,1222,1250,1266,1282,1284,1301,1318,1336,1351.999,1370,1399","[717, 717, 717, 717, 719, 722, 726, 730, 734, 737, 744, 744, 744, 743, 740, 737, 733, 729, 718, 711, 700, 684, 664, 639, 610, 581, 552, 523, 457, 444, 438, 434, 433, 434, 438, 450, 506, 555, 621, 703, 788, 859, 917, 964, 1007, 1043, 1092, 1109, 1122, 1133, 1144, 1154, 1161, 1166, 1169, 1172, 1178, 1183, 1187, 1190, 1192, 1196, 1205]","[651, 645, 637, 626, 614, 602, 590, 574, 560, 550, 519, 515, 512, 508, 498, 492, 486, 479, 463, 455, 445, 435, 426, 416, 408, 399, 390, 379, 352, 346, 342, 339, 338, 338, 338, 338, 336, 334, 328, 316, 302, 291, 281, 273, 267, 262, 256, 254, 253, 251, 249, 246, 245, 244, 243, 240, 236, 232, 230, 228, 227, 223, 211]","[0, 0.0012, 0.00047058823529411766, 0.0006875, 0.0007156191212115552, 0.0007276068751089988, 0.0007440653318043246, 0.0010308408339565374, 0.0008564331379660629, 0.0006141356769947383, 0.00031780497164141406, 0.00026668444562970864, 0.00016665740792178211, 0.0001212678125181665, 0.0004176289655150426, 0.0009583148474999099, 0.0004005945531319359, 0.0002443108408575318, 0.0006695340634119862, 0.0026575364531836623, 0.0006194195311382711, 0.002096440251568134, 0.0012184284555256282, 0.000815934061687046, 0.0013079659962166369, 0.0014459263286370453, 0.001897778306336122, 0.0015508062419270824, 0.002971216081001178, 0.0011931517552730294, 0.0004241825029957634, 0.0003125, 0.00008318903308077031, 0.000030303030303030302, 0.00023529411764705883, 0.00037501171911622237, 0.0024362289858913784, 0.004086733278413076, 0.003898362711948445, 0.0027624465806800878, 0.04309416018865787, 0.004226297634514366, 0.0026751400335552314, 0.003972999147020072, 0.0024120325940102678, 0.0011013807179021968, 0.0023507609613709493, 0.00155611297896579, 0.0008149003006503311, 0.0003387981784090591, 0.0006987712429686843, 0.01044030650891055, 0.0003367175148507369, 0.00018210783977117088, 0.0001976423537605237, 0.0002651650429449553, 0.003605551275463989, 0.0003766543669078146, 0.0002630668208823282, 0.00020030840419244384, 0.00013976298378022312, 0.00031425222207057276, 0.0005172413793103448]","[0, 6, 8, 11, 12.165525060596439, 12.36931687685298, 12.649110640673518, 16.492422502470642, 14.560219778561036, 10.44030650891055, 31.78049716414141, 4, 3, 4.123105625617661, 10.44030650891055, 6.708203932499369, 7.211102550927978, 8.06225774829855, 19.4164878389476, 10.63014581273465, 14.866068747318506, 18.867962264113206, 21.93171219946131, 26.92582403567252, 30.083217912982647, 30.364452901377952, 30.364452901377952, 31.016124838541646, 71.30918594402827, 14.317821063276353, 7.211102550927978, 5, 1.4142135623730951, 1, 4, 12, 56.0357029044876, 49.040799340956916, 66.27216610312357, 82.87339742040264, 86.14522621712709, 71.84705978674423, 58.855755878248644, 47.67598976424087, 43.41658669218482, 36.345563690772494, 49.36598018878993, 17.11724276862369, 13.038404810405298, 11.180339887498949, 11.180339887498949, 10.44030650891055, 7.0710678118654755, 5.0990195135927845, 3.1622776601683795, 4.242640687119285, 7.211102550927978, 6.4031242374328485, 4.47213595499958, 3.605551275463989, 2.23606797749979, 5.656854249492381, 15]","[0, 0.004606042048606608, 0.0062013099802505686, 0.008639749265332763, 0.010952048345818127, 0.011780098797271802, 0.012590424487358524, 0.016088131085372943, 0.014598967419026847, 0.010624389677643157, 0.032008378763375964, 0.0036256223464063244, 0.002731217267048951, 0.003031158601988147, 0.007356582001031044, 0.003727228323292379, 0.0031488361064881416, 0.004154308168699748, 0.008581389699609752, 0.0034707686742444224, 0.0030063822017152735, 0.00017847183241680493, 0.0039781740016651915, 0.006666434911576809, 0.012424340741338084, 0.012261519034735867, 0.01331373582853447, 0.011999259127329126, 0.02924097640564712, 0.005648230664883527, 0.0009590667255117937, 0.00017645328763043894, 0.00031404542385499883, 0.001118589977217359, 0.00444242911120882, 0.013026654027381889, 0.058035719167251296, 0.044432820103863326, 0.05580639076353893, 0.0634970877072086, 0.056457072490628195, 0.039350784382440336, 0.0292828998687243, 0.021380085771671494, 0.016788711058147377, 0.01307395678781041, 0.015832471877330032, 0.005122003525517494, 0.0033708682008949534, 0.0037662898091887814, 0.003699976712481216, 0.004286835904690185, 0.002054188918948281, 0.0016879997211497176, 0.0013344143221164213, 0.0029655720867885816, 0.004263654398942107, 0.004068122436842093, 0.0022599048644731303, 0.002091507356624465, 0.001119547686380318, 0.003844850463145317, 0.010991787688161971]",false,1440,820,320,"{browserName: BrowserName.safari, appCodeName: Mozilla, appName: Netscape, appVersion: 5.0 (Macintosh; Intel Mac OS X 10_15_7) AppleWebKit/605.1.15 (KHTML, like Gecko) Version/16.6 Safari/605.1.15, deviceMemory: null, language: da-DK, languages: [da-DK], platform: MacIntel, product: Gecko, productSub: 20030107, userAgent: Mozilla/5.0 (Macintosh; Intel Mac OS X 10_15_7) AppleWebKit/605.1.15 (KHTML, like Gecko) Version/16.6 Safari/605.1.15, vendor: Apple Computer, Inc., vendorSub: , hardwareConcurrency: 4, maxTouchPoints: 0}"
6,2023-09-28 14:23:26.743,CandyCandle,null,2023-09-28T14:22:55.628,2023-09-28T14:27:40.739,31115,205,23,female,m,experimental,cloud,Target.b,robe,Target.a,null,null,phono,prime,0,2023-09-28 14:23:25.917,2023-09-28 14:23:26.743,826,true,690000,832334.3333333334,0.0027548838605929602,null,702.4735815464242,673.238442158497,0.5817443561776618,"133,145.999,162.999,178,195,212,228,262,287,293,322,326,356,361,389,392,423,426,455,459,489,491.999,522,525,555,558,587,592,621,626,655,659,689,692,722,725,758.999,761,789,792,823","[726, 726, 728, 732, 735, 738, 741, 744, 745, 746, 748, 750, 753, 756, 759, 762, 765, 770, 776, 782, 790, 797, 806, 815, 825, 835, 845, 856, 869, 886, 905, 929, 963, 1003, 1041, 1078, 1116, 1149, 1175, 1195, 1209]","[647, 637, 625, 613, 601, 592, 583, 571, 564, 556, 549, 541, 532, 524, 516, 509, 502, 494, 486, 480, 474, 469, 464, 459, 452, 446, 441, 435, 427, 416, 402, 386, 361, 331, 304, 276, 247, 223, 203, 188, 178]","[0, 0.0007692899453804139, 0.0007156191212115552, 0.0008432178281896885, 0.0007276068751089988, 0.0005580489988532434, 0.0005929270612815711, 0.0003638034375544994, 0.000282842712474619, 0.0013437096247164249, 0.0002510382720441558, 0.00206155281280883, 0.00031622776601683794, 0.001708800749063506, 0.0003051429909041975, 0.0025385910352879694, 0.0002456701001891583, 0.003144660377352201, 0.0003448275862068965, 0.0021213203435596424, 0.0003333333333333333, 0.0028683978883103124, 0.00034317623215849474, 0.0034318767136623336, 0.0004068851871911234, 0.0038873012632302003, 0.0003855289616378948, 0.0025059928172283335, 0.0005263564662921982, 0.004049691346263318, 0.0008138223256004101, 0.007211102550927978, 0.0014067298564006128, 0.016666666666666666, 0.0015538482694408887, 0.015466810344160241, 0.001405972928935218, 0.020392009758224052, 0.0011715156762040519, 0.008333333333333333, 0.0005549887269059759]","[0, 10, 12.165525060596439, 12.649110640673518, 12.36931687685298, 9.486832980505138, 9.486832980505138, 12.36931687685298, 7.0710678118654755, 8.06225774829855, 7.280109889280518, 8.246211251235321, 9.486832980505138, 8.54400374531753, 8.54400374531753, 7.615773105863909, 7.615773105863909, 9.433981132056603, 10, 8.48528137423857, 10, 8.602325267042627, 10.295630140987, 10.295630140987, 12.206555615733702, 11.661903789690601, 11.180339887498949, 12.529964086141668, 15.264337522473747, 20.248456731316587, 23.600847442411894, 28.844410203711913, 42.20189569201838, 50, 46.61544808322666, 46.400431032480725, 47.80167361086848, 40.80441152620633, 32.802438933713454, 25, 17.204650534085253]","[0, 0.007729705560923574, 0.010776000795254424, 0.012265479218251189, 0.011719027981240424, 0.009371573572798955, 0.009437003056634773, 0.012034067433877206, 0.006594497273334219, 0.007504281955157403, 0.007337239109560772, 0.008253805237649204, 0.00982067089392978, 0.008985225785020192, 0.009026180258635625, 0.008157944683562086, 0.00818279352580468, 0.010309799831391327, 0.010892544866611622, 0.009012839920308779, 0.010093115198125314, 0.008530950311358048, 0.009541593083094041, 0.00943335707579788, 0.011700417235064093, 0.010634468210304518, 0.009570109292656523, 0.01084036188403731, 0.01344892978613916, 0.01774676842100207, 0.020953280497165747, 0.024222180232051093, 0.03514021845470824, 0.03990031442040432, 0.034630485841325366, 0.03348050578119338, 0.03283066566492881, 0.026116323533741305, 0.020621381312180765, 0.015033995419859916, 0.009864253562588996]",false,1440,820,320,"{browserName: BrowserName.safari, appCodeName: Mozilla, appName: Netscape, appVersion: 5.0 (Macintosh; Intel Mac OS X 10_15_7) AppleWebKit/605.1.15 (KHTML, like Gecko) Version/16.6 Safari/605.1.15, deviceMemory: null, language: da-DK, languages: [da-DK], platform: MacIntel, product: Gecko, productSub: 20030107, userAgent: Mozilla/5.0 (Macintosh; Intel Mac OS X 10_15_7) AppleWebKit/605.1.15 (KHTML, like Gecko) Version/16.6 Safari/605.1.15, vendor: Apple Computer, Inc., vendorSub: , hardwareConcurrency: 4, maxTouchPoints: 0}"
7,2023-09-28 14:23:29.930,CandyCandle,null,2023-09-28T14:22:55.628,2023-09-28T14:27:40.739,34302,205,23,female,m,experimental,clown,Target.a,bat,Target.b,null,null,phono,critical,0,2023-09-28 14:23:28.796,2023-09-28 14:23:29.930,1134,true,976000,852858.1428571428,0.0018632320363051234,null,791.4226518167416,688.3153347122233,0.1783667857825445,"132,147,164,180,197,214,231,246,262,282,298,334,357,361,392,394,428,705,715,736,753,755,789,823,855,878,903,921,924,954,978,1001,1016,1034,1056,1058,1085,1106,1108","[714, 714, 715, 717, 719, 722, 725, 729, 733, 738, 743, 750, 753, 755, 756, 756, 757, 756, 754, 746, 738, 719, 646, 557, 518, 452, 426, 402, 380, 360, 339, 317, 295, 255, 239, 219, 200, 191, 171]","[644, 638, 631, 623, 614, 605, 596, 585, 573, 561, 549, 534, 529, 526, 524, 523, 522, 522, 521, 517, 512, 499, 455, 410, 390, 354, 337, 321, 308, 297, 287, 276, 267, 255, 249, 241, 233, 229, 221]","[0, 0.0004, 0.0004159451654038515, 0.0005153882032022075, 0.0005423261445466404, 0.0005580489988532434, 0.0005580489988532434, 0.0007803133273813084, 0.0007905694150420948, 0.00065, 0.0008125, 0.00045980403770130135, 0.0002535196476019696, 0.0009013878188659973, 0.00007213122508063838, 0.0005, 0.000041594516540385153, 0.0000036101083032490977, 0.00022360679774997898, 0.00042591770999995997, 0.0005549400665915649, 0.011510864433221338, 0.0025069108632188274, 0.0029332245444857615, 0.0013696629375506955, 0.0032686862833413047, 0.0012425779653607253, 0.0016024672335395508, 0.008517954892787092, 0.0007608474807008884, 0.000969141945801084, 0.0010694238153259865, 0.0015846485765339618, 0.0023200681130912336, 0.0007767276132106845, 0.010770329614269008, 0.0007635380788180853, 0.0004689932286569573, 0.010770329614269008]","[0, 6, 7.0710678118654755, 8.246211251235321, 9.219544457292887, 9.486832980505138, 9.486832980505138, 11.704699910719626, 12.649110640673518, 13, 13, 16.55294535724685, 5.830951894845301, 3.605551275463989, 2.23606797749979, 1, 1.4142135623730951, 1, 2.23606797749979, 8.94427190999916, 9.433981132056603, 23.021728866442675, 85.23496934944014, 99.72963451251589, 43.829214001622255, 75.17978451685, 31.064449134018133, 28.844410203711913, 25.553864678361276, 22.825424421026653, 23.259406699226016, 24.596747752497688, 23.769728648009426, 41.7612260356422, 17.08800749063506, 21.540659228538015, 20.615528128088304, 9.848857801796104, 21.540659228538015]","[0, 0.004653109570106476, 0.006172382536830384, 0.0077082229853321985, 0.008572857027529955, 0.009334011438092111, 0.00940324987123825, 0.011808818528486314, 0.01275055615364137, 0.013520634014349943, 0.013616683525490643, 0.0176224911679859, 0.006316928000965748, 0.003917223037146656, 0.00240546603398176, 0.0008940521844243251, 0.0015130747072630156, 0.0006179152028983047, 0.00034204842901870935, 0.0013848791577539476, 0.000498005483557026, 0.0001704596034445274, 0.0069281152733246055, 0.02090761463072354, 0.010815186674796945, 0.01905217111995218, 0.004874099609360195, 0.004552108814706128, 0.007296355806793982, 0.008673493263795023, 0.012721297134116884, 0.013846711071782907, 0.019249208521838146, 0.04978090193608928, 0.020488935736094234, 0.027300736428689142, 0.028275755075589982, 0.014165091158942348, 0.036635456432011576]",false,1440,820,320,"{browserName: BrowserName.safari, appCodeName: Mozilla, appName: Netscape, appVersion: 5.0 (Macintosh; Intel Mac OS X 10_15_7) AppleWebKit/605.1.15 (KHTML, like Gecko) Version/16.6 Safari/605.1.15, deviceMemory: null, language: da-DK, languages: [da-DK], platform: MacIntel, product: Gecko, productSub: 20030107, userAgent: Mozilla/5.0 (Macintosh; Intel Mac OS X 10_15_7) AppleWebKit/605.1.15 (KHTML, like Gecko) Version/16.6 Safari/605.1.15, vendor: Apple Computer, Inc., vendorSub: , hardwareConcurrency: 4, maxTouchPoints: 0}"
8,2023-09-28 14:23:33.410,CandyCandle,null,2023-09-28T14:22:55.628,2023-09-28T14:27:40.739,37782,205,23,female,m,experimental,printer,Target.a,dolphin,Target.b,null,null,control,control,0,2023-09-28 14:23:32.314,2023-09-28 14:23:33.410,1095,true,929000,862376,0.0011336651592881275,null,746.3200591702794,672.9635948548777,0.11009639012848123,"126,141,156,176,189,210,223,243,260,277,310,340,374,408,444,475,735,774,800,826,861,892,923,958,991,1024,1052,1055","[709, 709, 709, 709, 709, 709, 709, 710, 712, 713, 714, 715, 715, 714, 713, 712, 711, 708, 697, 581, 495, 423, 357, 298, 256, 240, 207, 193]","[654, 646, 636, 625, 614, 604, 594, 579, 564, 549, 525, 512, 507, 504, 501, 501, 501, 500, 497, 449, 408, 368, 323, 285, 255, 244, 228, 222]","[0, 0.0005333333333333334, 0.0006666666666666666, 0.00055, 0.0008461538461538462, 0.0004761904761904762, 0.0007692307692307692, 0.0007516648189186454, 0.0008901615264953857, 0.0008843115516689946, 0.0007279037666342008, 0.00043461349368017663, 0.00014705882352941175, 0.00009300816647554058, 0.00008784104611578831, 0.000032258064516129034, 0.000003846153846153846, 0.00008108404256841999, 0.0004385290096535146, 0.004828416869684681, 0.002722094031874606, 0.0026569368105772906, 0.0025768116688440674, 0.0020050955496597428, 0.0015640591394622957, 0.0005883784193620484, 0.0013097943443494463, 0.005077182070575939]","[0, 8, 10, 11, 11, 10, 10, 15.033296378372908, 15.132745950421556, 15.033296378372908, 24.020824298928627, 13.038404810405298, 5, 3.1622776601683795, 3.1622776601683795, 1, 1, 3.1622776601683795, 11.40175425099138, 125.53883861180172, 95.2732911156112, 82.365041127896, 79.88116173416608, 70.178344238091, 51.61395160225576, 19.4164878389476, 36.6742416417845, 15.231546211727817]","[0, 0.006130721479613373, 0.007760887246631456, 0.008663596402832036, 0.00879797612377281, 0.008116249590193698, 0.008230056661738644, 0.013251659000071931, 0.014190058895068313, 0.01375676097133134, 0.022147193418349552, 0.012583544882988542, 0.004637950992406275, 0.0021382718658741686, 0.002150771514042555, 0.0006603773868904331, 0.0006616192464838078, 0.0010505535419766993, 0.004549981000669651, 0.03850287718858437, 0.031411518040569346, 0.02662855155053821, 0.01946210931174292, 0.0276636341137471, 0.020337816943900133, 0.010221219323945416, 0.03997413651828781, 0.021527695006114636]",false,1440,820,320,"{browserName: BrowserName.safari, appCodeName: Mozilla, appName: Netscape, appVersion: 5.0 (Macintosh; Intel Mac OS X 10_15_7) AppleWebKit/605.1.15 (KHTML, like Gecko) Version/16.6 Safari/605.1.15, deviceMemory: null, language: da-DK, languages: [da-DK], platform: MacIntel, product: Gecko, productSub: 20030107, userAgent: Mozilla/5.0 (Macintosh; Intel Mac OS X 10_15_7) AppleWebKit/605.1.15 (KHTML, like Gecko) Version/16.6 Safari/605.1.15, vendor: Apple Computer, Inc., vendorSub: , hardwareConcurrency: 4, maxTouchPoints: 0}"
9,2023-09-28 14:23:36.227,CandyCandle,null,2023-09-28T14:22:55.628,2023-09-28T14:27:40.739,40599,205,23,female,m,experimental,mouse,Target.b,pepper,Target.a,null,null,phono,prime,0,2023-09-28 14:23:35.412,2023-09-28 14:23:36.227,814,true,701000,844445.4444444445,0.004508469456548221,null,725.1803763230989,690.8871108943921,0.603292646322902,"94,110,128,144,161,177,194,211,293,321,684,688,721,723,728,748,762,783,795","[711, 711, 711, 711, 711, 711, 711, 711, 717, 718, 721, 731, 758, 810, 857, 920, 1022, 1125, 1205]","[641, 634, 620, 604, 588, 573, 560, 551, 537, 537, 534, 525, 498, 449, 405, 353, 277, 207, 158]","[0, 0.0004375, 0.0007777777777777777, 0.001, 0.0009411764705882353, 0.0009375, 0.0007647058823529412, 0.0005294117647058823, 0.0001857505635576563, 0.00003571428571428572, 0.000011687715391513181, 0.0033634060117684276, 0.001157083823759805, 0.0357246413557925, 0.012876334882255898, 0.004084421623681864, 0.009085759209233055, 0.005930244552589272, 0.007817803755247094]","[0, 7, 14, 16, 16, 15, 13, 9, 15.231546211727817, 1, 4.242640687119285, 13.45362404707371, 38.18376618407357, 71.449282711585, 64.38167441127949, 81.68843247363729, 127.20062892926276, 124.53513560437472, 93.81364506296512]","[0, 0.005457691324575276, 0.011076765878849749, 0.012926538000796595, 0.01321679382521131, 0.012658903919911943, 0.011184176456023556, 0.007860235302993469, 0.01645678392082348, 0.0006685964078085368, 0.004680263575156694, 0.014649664503928893, 0.04155791573460889, 0.07512026256290473, 0.0646836422282465, 0.07509859472132652, 0.10169408597366777, 0.08271360486206744, 0.051588127123798254]",false,1440,820,320,"{browserName: BrowserName.safari, appCodeName: Mozilla, appName: Netscape, appVersion: 5.0 (Macintosh; Intel Mac OS X 10_15_7) AppleWebKit/605.1.15 (KHTML, like Gecko) Version/16.6 Safari/605.1.15, deviceMemory: null, language: da-DK, languages: [da-DK], platform: MacIntel, product: Gecko, productSub: 20030107, userAgent: Mozilla/5.0 (Macintosh; Intel Mac OS X 10_15_7) AppleWebKit/605.1.15 (KHTML, like Gecko) Version/16.6 Safari/605.1.15, vendor: Apple Computer, Inc., vendorSub: , hardwareConcurrency: 4, maxTouchPoints: 0}"
10,2023-09-28 14:23:38.960,CandyCandle,null,2023-09-28T14:22:55.628,2023-09-28T14:27:40.739,43332,205,23,female,m,experimental,mouse,Target.b,donut,Target.a,null,null,phono,prime,0,2023-09-28 14:23:38.218,2023-09-28 14:23:38.960,741,true,639000,823901,0.0019671414175791006,null,696.7683964888323,685.1897547395174,0.5989125099130669,"79,96,114,130,146,163,180,196,252,278,281,311,314,347,378,381,412,436,458,479,501,555,602,622,642,652,670,689,701,718","[716, 716, 718, 721, 727, 733, 740, 748, 783, 798, 813, 833, 857, 913, 943, 969, 987, 1000, 1008, 1012, 1014, 1014, 1017, 1025, 1045, 1073, 1112, 1150, 1178, 1202]","[653, 650, 641, 631, 622, 613, 603, 594, 543, 523, 504, 482, 458, 415, 397, 382, 371, 364, 359, 357, 356, 355, 351, 341, 315, 283, 244, 210, 188, 170]","[0, 0.00017647058823529413, 0.0005121969142940492, 0.0006525191568069094, 0.0006760408641494981, 0.0006362737544936452, 0.0007180326832784531, 0.0007525996611745185, 0.001104547649585151, 0.0009615384615384616, 0.008069145624606804, 0.0009910712498212336, 0.01131370849898476, 0.00213953128583077, 0.001128571334486187, 0.010005554013202423, 0.0006804846164428706, 0.0006152009608430583, 0.00042881732418439104, 0.00021295885499997998, 0.00010163945352271772, 0.000018518518518518518, 0.00010638297872340425, 0.0006403124237432849, 0.0016401219466856726, 0.00425205832509386, 0.003064129385141706, 0.002683694480838308, 0.0029674156357941428, 0.0017647058823529412]","[0, 3, 9.219544457292887, 10.44030650891055, 10.816653826391969, 10.816653826391969, 12.206555615733702, 12.041594578792296, 61.85466837676846, 25, 24.20743687382041, 29.732137494637012, 33.94112549695428, 70.60453243241541, 34.9857113690718, 30.01666203960727, 21.095023109728988, 14.7648230602334, 9.433981132056603, 4.47213595499958, 2.23606797749979, 1, 5, 12.806248474865697, 32.802438933713454, 42.5205832509386, 55.154328932550705, 50.99019513592785, 35.608987629529715, 30]","[0, 0.002292159305513193, 0.008320087188181727, 0.009871186035760529, 0.01120883750062257, 0.011239144450073011, 0.01274081083309088, 0.01259555500482388, 0.06480267657932222, 0.02618723135048172, 0.02521151075505168, 0.030383286679291, 0.03375429509194121, 0.06417734185305143, 0.0281524565534832, 0.02296059517476498, 0.015966770507432507, 0.010455536939409309, 0.006948308976188202, 0.0030062813359702885, 0.0014966258357870972, 0.000878244255443631, 0.004430503530886008, 0.011167095647844145, 0.028391913824784617, 0.034899037410148014, 0.04187285385963168, 0.035382658691029856, 0.022360673057440737, 0.017758831685831793]",false,1440,820,320,"{browserName: BrowserName.safari, appCodeName: Mozilla, appName: Netscape, appVersion: 5.0 (Macintosh; Intel Mac OS X 10_15_7) AppleWebKit/605.1.15 (KHTML, like Gecko) Version/16.6 Safari/605.1.15, deviceMemory: null, language: da-DK, languages: [da-DK], platform: MacIntel, product: Gecko, productSub: 20030107, userAgent: Mozilla/5.0 (Macintosh; Intel Mac OS X 10_15_7) AppleWebKit/605.1.15 (KHTML, like Gecko) Version/16.6 Safari/605.1.15, vendor: Apple Computer, Inc., vendorSub: , hardwareConcurrency: 4, maxTouchPoints: 0}"
11,2023-09-28 14:23:41.510,CandyCandle,null,2023-09-28T14:22:55.628,2023-09-28T14:27:40.739,45882,205,23,female,m,experimental,mouse,Target.b,cloud,Target.a,null,null,phono,prime,0,2023-09-28 14:23:40.944,2023-09-28 14:23:41.510,565,true,449000,789819.1818181818,0.0014793674491015416,null,730.0064116657647,718.7336085087437,0.6254761563133221,"94,110,127,143,159,203,224,243,264,276,294,315,327,343,360,377,393,414,427,444,460,477,497,509,526,543","[692, 693, 699, 717, 747, 791, 846, 894, 1014, 1041, 1061, 1080, 1095, 1107, 1116, 1123, 1130, 1135, 1141, 1148, 1155, 1165, 1179, 1194, 1206, 1215]","[653, 652, 646, 627, 590, 530, 456, 393, 275, 256, 244, 233, 224, 216, 210, 205, 202, 199, 196, 193, 189, 183, 176, 170, 164, 160]","[0, 0.00008838834764831845, 0.0004991341984846218, 0.0016357815410378, 0.0029771263409536382, 0.0016910068397943886, 0.0043905175083274305, 0.004168540668140238, 0.00801415980434721, 0.0027512623365365295, 0.0012957670877434002, 0.0010454523047666738, 0.001457737973711325, 0.0009013878188659973, 0.0006362737544936452, 0.0005060191333554487, 0.0004759858191164943, 0.0002776643759450143, 0.0005160156871153361, 0.00044798665328611226, 0.0005038911092686594, 0.0006859943405700354, 0.0007826237921249264, 0.001346291201783626, 0.0007892004626469846, 0.0005793445765762414]","[0, 1.4142135623730951, 8.48528137423857, 26.1725046566048, 47.634021455258214, 74.4043009509531, 92.20086767487604, 79.20227269466452, 168.2973558912914, 33.015148038438355, 23.323807579381203, 21.95449840010015, 17.4928556845359, 14.422205101855956, 10.816653826391969, 8.602325267042627, 7.615773105863909, 5.830951894845301, 6.708203932499369, 7.615773105863909, 8.06225774829855, 11.661903789690601, 15.652475842498529, 16.15549442140351, 13.416407864998739, 9.848857801796104]","[0, 0.0014856745634982806, 0.00891099305242255, 0.02747963236319572, 0.05002729887126984, 0.0781734818009875, 0.09596872078638788, 0.08019474714054463, 0.14933655481064692, 0.023700371678364487, 0.01509099502131727, 0.01355746823508936, 0.01070179876297434, 0.009081507564036641, 0.006703668868218524, 0.0054384267557255, 0.0036660397423040245, 0.003326396087144749, 0.003447411792947426, 0.00355790902926116, 0.004362072923427371, 0.0063904671594759545, 0.007623578690366791, 0.006756776126982158, 0.006270338928851554, 0.004223825558001918]",false,1440,820,320,"{browserName: BrowserName.safari, appCodeName: Mozilla, appName: Netscape, appVersion: 5.0 (Macintosh; Intel Mac OS X 10_15_7) AppleWebKit/605.1.15 (KHTML, like Gecko) Version/16.6 Safari/605.1.15, deviceMemory: null, language: da-DK, languages: [da-DK], platform: MacIntel, product: Gecko, productSub: 20030107, userAgent: Mozilla/5.0 (Macintosh; Intel Mac OS X 10_15_7) AppleWebKit/605.1.15 (KHTML, like Gecko) Version/16.6 Safari/605.1.15, vendor: Apple Computer, Inc., vendorSub: , hardwareConcurrency: 4, maxTouchPoints: 0}"
12,2023-09-28 14:23:44.379,CandyCandle,null,2023-09-28T14:22:55.628,2023-09-28T14:27:40.739,48752,205,23,female,m,experimental,mouth,Target.a,ruler,Target.b,null,null,phono,critical,0,2023-09-28 14:23:43.480,2023-09-28 14:23:44.379,899,true,784000,789334.3333333334,0.0017632660008175343,null,901.9473955061459,683.7755479687761,0.11103034482087656,"90,107,123,140,157,208,234,239,259,273,291,307,327,527,534,561,593,618,623,641,675,699,707,724,745,757,776,791,809,824,844,874","[718, 718, 720, 728, 746, 766, 820, 831, 837, 840, 842, 842, 843, 842, 840, 826, 813, 740, 693, 643, 589, 492, 452, 412, 378, 349, 325, 301, 281, 264, 247, 233]","[650, 647, 636, 618, 588, 558, 499, 489, 484, 480, 479, 478, 478, 478, 477, 473, 467, 433, 411, 385, 356, 300, 278, 257, 240, 224, 210, 198, 188, 181, 174, 168]","[0, 0.00017647058823529413, 0.0006987712429686843, 0.0011586891531524827, 0.002057983021710106, 0.0007069708383262723, 0.003076201838546894, 0.0029732137494637013, 0.0003905124837953327, 0.00035714285714285714, 0.00012422599874998834, 0.0000625, 0.00005, 0.000005, 0.00031943828249997, 0.0005392673992059643, 0.000447431908227386, 0.0032211799080461186, 0.010378824596263297, 0.0031308895119123046, 0.0018027756377319948, 0.0046668526748643874, 0.005706356105256664, 0.0026574957642532984, 0.0018101502674998297, 0.0027600825269465325, 0.0014623625252052426, 0.0017888543819998318, 0.0012422599874998832, 0.0012256517540566822, 0.0009192388155425117, 0.0005077182070575939]","[0, 3, 11.180339887498949, 19.697715603592208, 34.9857113690718, 36.05551275463989, 79.98124780221924, 14.866068747318506, 7.810249675906654, 5, 2.23606797749979, 1, 1, 1, 2.23606797749979, 14.560219778561036, 14.317821063276353, 80.52949770115296, 51.894122981316485, 56.356011214421486, 61.29437168288782, 112.0044641967453, 45.65084884205331, 45.17742799230607, 38.01315561749642, 33.12099032335839, 27.784887978899608, 26.832815729997478, 22.360679774997898, 18.384776310850235, 18.384776310850235, 15.231546211727817]","[0, 0.002301096065230569, 0.009900026812132584, 0.019674568052956542, 0.03634914339734061, 0.037934524632909625, 0.08289931267957118, 0.014790947923898476, 0.0076042570926281305, 0.005131449507282658, 0.0019206122351024552, 0.0008977251656093539, 0.0005094373366644972, 0.0005094373366644972, 0.0001218878488949865, 0.00360862026503644, 0.0013368002265754747, 0.008022658544277307, 0.005893244145885436, 0.004193180841321027, 0.004154791937271849, 0.003903275284254878, 0.0038458330133078144, 0.006318074815614973, 0.007975324887264157, 0.004911583602047202, 0.0030536159099803094, 0.008177429713071966, 0.007799193283573902, 0.011356847314215024, 0.012708463486335688, 0.01099249362418057]",false,1440,820,320,"{browserName: BrowserName.safari, appCodeName: Mozilla, appName: Netscape, appVersion: 5.0 (Macintosh; Intel Mac OS X 10_15_7) AppleWebKit/605.1.15 (KHTML, like Gecko) Version/16.6 Safari/605.1.15, deviceMemory: null, language: da-DK, languages: [da-DK], platform: MacIntel, product: Gecko, productSub: 20030107, userAgent: Mozilla/5.0 (Macintosh; Intel Mac OS X 10_15_7) AppleWebKit/605.1.15 (KHTML, like Gecko) Version/16.6 Safari/605.1.15, vendor: Apple Computer, Inc., vendorSub: , hardwareConcurrency: 4, maxTouchPoints: 0}"
13,2023-09-28 14:23:48.166,CandyCandle,null,2023-09-28T14:22:55.628,2023-09-28T14:27:40.739,52539,205,23,female,m,experimental,barrel,Target.b,monkey,Target.a,null,null,control,control,0,2023-09-28 14:23:46.326,2023-09-28 14:23:48.166,1840,true,1712000,860308.6923076923,0.0008736820201680098,null,880.000285024803,706.8493474567265,0.5734173247325515,"110,127,143,160,179,193,234,254,267,284,301,319,335,351,365,381,395,408,906,921,939,957,959,977,983,1006,1028,1034,1061,1074,1093,1110,1209,1229,1245,1264,1287,1299,1312,1325,1342,1360,1376,1391,1407,1424,1441,1459,1475,1489,1508,1524,1541,1558,1573,1591,1607,1622,1641,1655,1673,1690,1706,1723,1740,1756,1773,1789,1807,1822","[720, 720, 720, 724, 732, 741, 751, 759, 765, 769, 772, 773, 775, 776, 777, 778, 779, 780, 779, 777, 772, 763, 756, 746, 732, 721, 713, 708, 703, 701, 699, 699, 700, 702, 705, 708, 760, 825, 900, 962, 1015, 1054, 1079, 1099, 1117, 1134, 1150, 1167, 1180, 1192, 1199, 1204, 1207, 1209, 1211, 1215, 1220, 1224, 1228, 1231, 1235, 1239, 1242, 1244, 1246, 1250, 1255, 1261, 1266, 1270]","[665, 658, 643, 624, 605, 590, 579, 572, 567, 563, 562, 561, 560, 560, 560, 559, 559, 559, 559, 559, 556, 551, 546, 540, 532, 524, 519, 515, 513, 511, 511, 510, 510, 510, 510, 510, 485, 454, 425, 405, 391, 381, 373, 366, 356, 345, 333, 320, 310, 300, 294, 290, 288, 287, 285, 283, 279, 275, 271, 268, 264, 261, 258, 256, 253, 248, 241, 233, 226, 221]","[0, 0.00041176470588235296, 0.0009375, 0.0011421463434675059, 0.0010850277962151738, 0.0012494896917525644, 0.0003625870426175245, 0.0005315072906367325, 0.0006007884366082041, 0.00033275613232308123, 0.00018601633295108115, 0.00007856742013183862, 0.00013975424859373687, 0.0000625, 0.00007142857142857143, 0.00008838834764831845, 0.00007142857142857143, 0.00007692307692307693, 0.0000020080321285140564, 0.00013333333333333334, 0.00032394177193585005, 0.0005719794522770556, 0.004301162633521313, 0.0006478835438717001, 0.0026874192494328497, 0.0005913682829884975, 0.00042881732418439104, 0.0010671873729054748, 0.00019945054841238904, 0.00021757131728816848, 0.00010526315789473685, 0.00005882352941176471, 0.000010101010101010101, 0.0001, 0.0001875, 0.00015789473684210527, 0.002508586389000288, 0.006001157295796278, 0.006185495536299885, 0.00501122999227764, 0.003224581193803705, 0.002236758015466377, 0.001640550593550836, 0.0014126413400278061, 0.0012869537676233752, 0.0011910856900774463, 0.001176470588235294, 0.0011889408088351498, 0.0010250762166785455, 0.0011157499537009505, 0.00048523918196278354, 0.000400195264839553, 0.0002120912514978817, 0.0001315334104411641, 0.00018856180831641268, 0.00024845199749997667, 0.000400195264839553, 0.00037712361663282535, 0.0002977291710259148, 0.0003030457633656632, 0.00031426968052735446, 0.0002941176470588235, 0.0002651650429449553, 0.00016637806616154061, 0.0002120912514978817, 0.000400195264839553, 0.0005060191333554487, 0.000625, 0.00047790695928014593, 0.0004268749491621899]","[0, 7, 15, 19.4164878389476, 20.615528128088304, 17.4928556845359, 14.866068747318506, 10.63014581273465, 7.810249675906654, 5.656854249492381, 3.1622776601683795, 1.4142135623730951, 2.23606797749979, 1, 1, 1.4142135623730951, 1, 1, 1, 2, 5.830951894845301, 10.295630140987, 8.602325267042627, 11.661903789690601, 16.1245154965971, 13.601470508735444, 9.433981132056603, 6.4031242374328485, 5.385164807134504, 2.8284271247461903, 2, 1, 1, 2, 3, 3, 57.697486947006624, 72.01388754955533, 80.4114419718985, 65.14598989960932, 54.817880294662984, 40.26164427839479, 26.248809496813376, 21.18962010041709, 20.591260281974, 20.248456731316587, 20, 21.400934559032695, 16.401219466856727, 15.620499351813308, 9.219544457292887, 6.4031242374328485, 3.605551275463989, 2.23606797749979, 2.8284271247461903, 4.47213595499958, 6.4031242374328485, 5.656854249492381, 5.656854249492381, 4.242640687119285, 5.656854249492381, 5, 4.242640687119285, 2.8284271247461903, 3.605551275463989, 6.4031242374328485, 8.602325267042627, 10, 8.602325267042627, 6.4031242374328485]","[0, 0.005272083124509308, 0.011470626817409518, 0.017615292781670608, 0.020656287956037533, 0.01826091636078557, 0.015643957340679675, 0.01097274304584109, 0.00798582739011443, 0.005870968108436961, 0.00270087270175709, 0.0014626573111081859, 0.0020750379477380704, 0.0006120217815390372, 0.0006109854436962479, 0.001457146621278698, 0.0006085724140435587, 0.0006075419231612114, 0.0006075419231612114, 0.001218177491025492, 0.0005095272375700919, 0.0012776519978013323, 0.00004785375851800412, 0.0010758994284611112, 0.0019103548841056055, 0.000004959468215122059, 0.0007467916461767048, 0.00033286316791505694, 0.0015211578999633796, 0.0005033472168471478, 0.001360633945721151, 0.0009329812257768521, 0.0006805443306601974, 0.0013572845957070178, 0.0020264604516849853, 0.002015170339912915, 0.0562409976843497, 0.06492943559315657, 0.06189635356628128, 0.04270350746903548, 0.030774086371519804, 0.0208366590031256, 0.014034794189322922, 0.01135287925153148, 0.01294446574685145, 0.013197525478867385, 0.013479241521825202, 0.014227162136360985, 0.010722632403117004, 0.010349333062415096, 0.006097163947172885, 0.004098466379929898, 0.002133072584687794, 0.0011563507585701546, 0.00193544723241426, 0.002295069487411041, 0.004019175710143745, 0.003819077549892301, 0.003800698865785293, 0.002838477104382806, 0.003768593448355335, 0.0029773486521753596, 0.00280167816350557, 0.0018620842784252878, 0.0026281962186197063, 0.004469667391561363, 0.006134334831757785, 0.007009065622728717, 0.00605904715835625, 0.004363676227011825]",false,1440,820,320,"{browserName: BrowserName.safari, appCodeName: Mozilla, appName: Netscape, appVersion: 5.0 (Macintosh; Intel Mac OS X 10_15_7) AppleWebKit/605.1.15 (KHTML, like Gecko) Version/16.6 Safari/605.1.15, deviceMemory: null, language: da-DK, languages: [da-DK], platform: MacIntel, product: Gecko, productSub: 20030107, userAgent: Mozilla/5.0 (Macintosh; Intel Mac OS X 10_15_7) AppleWebKit/605.1.15 (KHTML, like Gecko) Version/16.6 Safari/605.1.15, vendor: Apple Computer, Inc., vendorSub: , hardwareConcurrency: 4, maxTouchPoints: 0}"
14,2023-09-28 14:23:50.876,CandyCandle,null,2023-09-28T14:22:55.628,2023-09-28T14:27:40.739,55249,205,23,female,m,experimental,barrel,Target.b,pear,Target.a,null,null,control,control,0,2023-09-28 14:23:50.125,2023-09-28 14:23:50.876,751,true,608000,842286.7142857143,0.001519381711806645,null,676.5938332929834,668.8445260297792,0.573416055755811,"126,145,162,178,207,240,257,274,291,312,314,337,353,370,388,410,412,437,453,473,484,501,517,535,551,568,586,602,618,635,651,668,684,701,717,734","[718, 723, 733, 751, 775, 802, 828, 869, 890, 905, 921, 942, 965, 987, 1006, 1022, 1034, 1048, 1063, 1079, 1096, 1111, 1126, 1141, 1153, 1163, 1169, 1175, 1180, 1185, 1189, 1193, 1197, 1201, 1206, 1211]","[656, 650, 639, 619, 592, 561, 531, 486, 464, 447, 430, 409, 384, 363, 347, 333, 322, 311, 297, 282, 269, 257, 245, 234, 225, 219, 215, 212, 210, 209, 208, 208, 207, 206, 205, 204]","[0, 0.0004110657724161397, 0.0008744746321952062, 0.0016817030058842138, 0.0012456821978060995, 0.0012457457449148162, 0.002335227440150495, 0.00358099558946457, 0.0017890478030288882, 0.0010795984808337747, 0.011672617529928752, 0.0012912384699928258, 0.0021231609689328786, 0.0017890478030288882, 0.00137997137204158, 0.0009663768920667863, 0.008139410298049854, 0.0007121797525905943, 0.0012823927830426995, 0.0010965856099730655, 0.0019455395053666086, 0.0011299631007234438, 0.001200585794518659, 0.0010333930687632376, 0.0009375, 0.0006859943405700354, 0.0004006168083848877, 0.0004192627457812106, 0.0003365728004459065, 0.0002999423243289873, 0.00025769410160110377, 0.00023529411764705883, 0.00025769410160110377, 0.000242535625036333, 0.000318688719599549, 0.0002999423243289873]","[0, 7.810249675906654, 14.866068747318506, 26.90724809414742, 36.124783736376884, 41.10960958218893, 39.698866482558415, 60.876925020897694, 30.4138126514911, 22.67156809750927, 23.345235059857504, 29.698484809834994, 33.97057550292606, 30.4138126514911, 24.839484696748443, 21.2602916254693, 16.278820596099706, 17.804493814764857, 20.518284528683193, 21.93171219946131, 21.400934559032695, 19.209372712298546, 19.209372712298546, 18.601075237738275, 15, 11.661903789690601, 7.211102550927978, 6.708203932499369, 5.385164807134504, 5.0990195135927845, 4.123105625617661, 4, 4.123105625617661, 4.123105625617661, 5.0990195135927845, 5.0990195135927845]","[0, 0.008025092283035036, 0.015287989413806623, 0.02764764281995156, 0.03702471735738133, 0.041928431735723734, 0.04015317726095875, 0.06031048591523213, 0.02934745219366039, 0.021806115541221808, 0.021968455500155568, 0.027182862079792685, 0.030904174028649794, 0.02629158093384522, 0.02027548081647165, 0.017167406460065288, 0.013090609906101527, 0.01341560735604358, 0.016027427441766467, 0.01681524984163966, 0.014954679612527036, 0.013355707950453181, 0.013079650525168027, 0.011966530977694219, 0.009557361506665422, 0.006594572561552337, 0.00424131132124408, 0.003380167586039573, 0.0023829111723181087, 0.0015462582759362483, 0.0013914536022188058, 0.000569184219286134, 0.0013765416228911408, 0.0013680214728608259, 0.0014966754687952002, 0.0014850689947704524]",false,1440,820,320,"{browserName: BrowserName.safari, appCodeName: Mozilla, appName: Netscape, appVersion: 5.0 (Macintosh; Intel Mac OS X 10_15_7) AppleWebKit/605.1.15 (KHTML, like Gecko) Version/16.6 Safari/605.1.15, deviceMemory: null, language: da-DK, languages: [da-DK], platform: MacIntel, product: Gecko, productSub: 20030107, userAgent: Mozilla/5.0 (Macintosh; Intel Mac OS X 10_15_7) AppleWebKit/605.1.15 (KHTML, like Gecko) Version/16.6 Safari/605.1.15, vendor: Apple Computer, Inc., vendorSub: , hardwareConcurrency: 4, maxTouchPoints: 0}"
15,2023-09-28 14:23:54.146,CandyCandle,null,2023-09-28T14:22:55.628,2023-09-28T14:27:40.739,58519,205,23,female,m,experimental,guitar,Target.b,trophy,Target.a,null,null,control,control,0,2023-09-28 14:23:53.402,2023-09-28 14:23:54.146,744,true,601000,826201,0.0023128092331655666,null,789.376044792158,639.9140567294955,0.5796097986317782,"126,143,159,176,193,210,255,271,299,310,329,351,522,589,618,626,645,667,677,695,717,727","[724, 724, 722, 717, 710, 702, 692, 681, 667, 666, 665, 665, 665, 665, 667, 675, 694, 737, 808, 904, 1025, 1155]","[649, 645, 631, 609, 580, 546, 512, 480, 426, 418, 414, 413, 412, 411, 410, 407, 399, 380, 344, 294, 234, 176]","[0, 0.00023529411764705883, 0.0008838834764831844, 0.001327119314432762, 0.0017548745753148587, 0.0020546175525379975, 0.0007875575620741933, 0.0021148655394610787, 0.001992332240140193, 0.0007329325225725954, 0.00021700555924303476, 0.00004545454545454545, 0.000005847953216374269, 0.000014925373134328359, 0.00007710579232757895, 0.0010680004681646912, 0.0010850277962151738, 0.0021368471406442106, 0.007960527620704547, 0.006013359612326582, 0.006139056648128084, 0.014235167719419397]","[0, 4, 14.142135623730951, 22.561028345356956, 29.832867780352597, 34.92849839314596, 35.4400902933387, 33.83784863137726, 55.78530272392541, 8.06225774829855, 4.123105625617661, 1, 1, 1, 2.23606797749979, 8.54400374531753, 20.615528128088304, 47.01063709417264, 79.60527620704548, 108.24047302187847, 135.05924625881784, 142.35167719419397]","[0, 0.0030717535582910956, 0.009514374792574476, 0.014111771931375144, 0.019167537147398515, 0.02391888249790932, 0.024047544490443645, 0.02302483360111386, 0.045594128268056464, 0.007890048228946494, 0.0036464310687378504, 0.0010844620808389284, 0.00108592483864999, 0.0010873879914517217, 0.0024294757491782185, 0.008557630648124684, 0.020815168319499505, 0.045727551417128705, 0.07355313579680985, 0.08806745722931941, 0.08998574241698044, 0.07322855655876871]",false,1440,820,320,"{browserName: BrowserName.safari, appCodeName: Mozilla, appName: Netscape, appVersion: 5.0 (Macintosh; Intel Mac OS X 10_15_7) AppleWebKit/605.1.15 (KHTML, like Gecko) Version/16.6 Safari/605.1.15, deviceMemory: null, language: da-DK, languages: [da-DK], platform: MacIntel, product: Gecko, productSub: 20030107, userAgent: Mozilla/5.0 (Macintosh; Intel Mac OS X 10_15_7) AppleWebKit/605.1.15 (KHTML, like Gecko) Version/16.6 Safari/605.1.15, vendor: Apple Computer, Inc., vendorSub: , hardwareConcurrency: 4, maxTouchPoints: 0}"
16,2023-09-28 14:23:57.106,CandyCandle,null,2023-09-28T14:22:55.628,2023-09-28T14:27:40.739,61480,205,23,female,m,experimental,banana,Target.a,camera,Target.b,null,null,control,control,0,2023-09-28 14:23:56.195,2023-09-28 14:23:57.106,911,true,761000,822126,0.003144744513902251,null,707.8810049289024,667.6046734408021,0.11187223858362691,"128,144,161,177,319,442,525,604,610,639,643,672,677,705,710,739,743,772,777,805,810,839,859,861,889","[709, 704, 695, 688, 685, 685, 685, 681, 674, 658, 631, 593, 551, 507, 463, 421, 383, 350, 322, 302, 286, 270, 256, 242, 229]","[624, 601, 564, 529, 483, 484, 485, 484, 481, 473, 460, 438, 410, 377, 342, 311, 283, 255, 229, 210, 196, 184, 175, 167, 160]","[0, 0.0014710752869924774, 0.0022399332664305616, 0.0022308210371968437, 0.0003246318470877777, 0.000008130081300813007, 0.000012048192771084337, 0.000052191210450856464, 0.0012692955176439847, 0.0006168463386206316, 0.007491662031885849, 0.0015141033379379415, 0.01009554357129917, 0.0019642857142857144, 0.011244554237496478, 0.001800052846363888, 0.011800423721205947, 0.0014923506902332691, 0.007641989269817119, 0.0009852224445809801, 0.00425205832509386, 0.000689655172413793, 0.000832165848854662, 0.00806225774829855, 0.00052731510929405]","[0, 23.53720459187964, 38.07886552931954, 35.6931365951495, 46.09772228646444, 1, 1, 4.123105625617661, 7.615773105863909, 17.88854381999832, 29.966648127543394, 43.9089968002003, 50.47771785649585, 55, 56.22277118748239, 52.20153254455275, 47.20169488482379, 43.278170016764804, 38.2099463490856, 27.586228448267445, 21.2602916254693, 20, 16.64331697709324, 16.1245154965971, 14.7648230602334]","[0, 0.015084194913841779, 0.024913829284402483, 0.026235550322941024, 0.04133793677202516, 0.0009743992979999476, 0.0009730594330948616, 0.0017897232130552867, 0.0019442066981399432, 0.003433641992765273, 0.006664165904321254, 0.0062501031842925586, 0.0035392279586658848, 0.00032954850592588217, 0.003181401241615699, 0.00003651028072939346, 0.0001203581835321974, 0.006716190264728455, 0.011455122995708217, 0.010582125245664542, 0.006806029839143439, 0.002612896140457033, 0.0014409780788431342, 0.004408978088328344, 0.005807234628014424]",false,1440,820,320,"{browserName: BrowserName.safari, appCodeName: Mozilla, appName: Netscape, appVersion: 5.0 (Macintosh; Intel Mac OS X 10_15_7) AppleWebKit/605.1.15 (KHTML, like Gecko) Version/16.6 Safari/605.1.15, deviceMemory: null, language: da-DK, languages: [da-DK], platform: MacIntel, product: Gecko, productSub: 20030107, userAgent: Mozilla/5.0 (Macintosh; Intel Mac OS X 10_15_7) AppleWebKit/605.1.15 (KHTML, like Gecko) Version/16.6 Safari/605.1.15, vendor: Apple Computer, Inc., vendorSub: , hardwareConcurrency: 4, maxTouchPoints: 0}"
17,2023-09-28 14:24:02.020,CandyCandle,null,2023-09-28T14:22:55.628,2023-09-28T14:27:40.739,66394,205,23,female,m,experimental,watermelon,Target.b,barrel,Target.a,null,null,motor,prime,0,2023-09-28 14:24:01.861,2023-09-28 14:24:02.020,159,true,17000,774765.7058823529,0.0003181368772468226,null,10.816653826391969,10.816653826391969,0.00598174488608912,"126,143","[1209, 1218]","[198, 192]","[0, 0.0006362737544936452]","[0, 10.816653826391969]","[0, 0.00598174488608912]",false,1440,820,320,"{browserName: BrowserName.safari, appCodeName: Mozilla, appName: Netscape, appVersion: 5.0 (Macintosh; Intel Mac OS X 10_15_7) AppleWebKit/605.1.15 (KHTML, like Gecko) Version/16.6 Safari/605.1.15, deviceMemory: null, language: da-DK, languages: [da-DK], platform: MacIntel, product: Gecko, productSub: 20030107, userAgent: Mozilla/5.0 (Macintosh; Intel Mac OS X 10_15_7) AppleWebKit/605.1.15 (KHTML, like Gecko) Version/16.6 Safari/605.1.15, vendor: Apple Computer, Inc., vendorSub: , hardwareConcurrency: 4, maxTouchPoints: 0}"
18,2023-09-28 14:24:04.607,CandyCandle,null,2023-09-28T14:22:55.628,2023-09-28T14:27:40.739,68980,205,23,female,m,experimental,watermelon,Target.b,flashlight,Target.a,null,null,motor,prime,0,2023-09-28 14:24:04.063,2023-09-28 14:24:04.607,544,true,425000,755334.3333333334,0.003164558425724238,null,675.2200828229102,653.3314625823557,0.5574379468846672,"100,116,132,150,164,200,221,242,259,280,282,308,331,350,369,391,409,431,433,458,475,499,500,525","[716, 716, 721, 733, 750, 773, 800, 837, 879, 941, 975, 1006, 1034, 1054, 1087, 1102, 1115, 1125, 1134, 1144, 1158, 1176, 1193, 1207]","[655, 644, 618, 587, 559, 536, 514, 490, 462, 413, 384, 357, 334, 317, 288, 274, 265, 258, 254, 250, 248, 243, 235, 224]","[0, 0.0006875, 0.0016547752868592159, 0.001846752237621629, 0.0023397627648798856, 0.000903525331516144, 0.0016584833111683807, 0.0021001025782095184, 0.0029692775209703443, 0.003763110114310542, 0.02234390297150433, 0.0015811388300841897, 0.001575449646260299, 0.0013815162893059672, 0.0023121981722619787, 0.0009326492967583269, 0.0008784104611578831, 0.0005548434370788046, 0.004924428900898052, 0.0004308131845707603, 0.000831890330807703, 0.0007783975705112252, 0.018788294228055936, 0.0007121797525905943]","[0, 11, 26.476404589747453, 33.24154027718932, 32.7566787083184, 32.526911934581186, 34.828149534535996, 44.10215414239989, 50.47771785649585, 79.02531240052139, 44.68780594300866, 41.10960958218893, 36.235341863986875, 26.248809496813376, 43.93176527297759, 20.518284528683193, 15.811388300841896, 12.206555615733702, 9.848857801796104, 10.770329614269007, 14.142135623730951, 18.681541692269406, 18.788294228055936, 17.804493814764857]","[0, 0.008428053279296206, 0.02388009240405515, 0.033386410936698606, 0.03473211527679809, 0.03422348720436259, 0.03519952751228023, 0.04145172681181854, 0.045717900672685996, 0.07033455065323203, 0.038390446968536815, 0.03418267311438525, 0.02856976416707389, 0.020284677420659453, 0.03315453937880466, 0.015301291812888052, 0.010358183025201839, 0.007903853190142826, 0.005086134887586967, 0.005199850841128834, 0.004173757377321807, 0.007210480407493818, 0.009272558268336891, 0.010995871273849964]",false,1440,820,320,"{browserName: BrowserName.safari, appCodeName: Mozilla, appName: Netscape, appVersion: 5.0 (Macintosh; Intel Mac OS X 10_15_7) AppleWebKit/605.1.15 (KHTML, like Gecko) Version/16.6 Safari/605.1.15, deviceMemory: null, language: da-DK, languages: [da-DK], platform: MacIntel, product: Gecko, productSub: 20030107, userAgent: Mozilla/5.0 (Macintosh; Intel Mac OS X 10_15_7) AppleWebKit/605.1.15 (KHTML, like Gecko) Version/16.6 Safari/605.1.15, vendor: Apple Computer, Inc., vendorSub: , hardwareConcurrency: 4, maxTouchPoints: 0}"
19,2023-09-28 14:24:07.328,CandyCandle,null,2023-09-28T14:22:55.628,2023-09-28T14:27:40.739,71702,205,23,female,m,experimental,watermelon,Target.b,dog,Target.a,null,null,motor,prime,0,2023-09-28 14:24:07.059,2023-09-28 14:24:07.328,270,true,114000,721579.947368421,0.0032587712470367285,null,436.1479664187201,435.72468371667907,0.41821341354458824,"130,146,166,179,244","[718, 737, 781, 845, 1018]","[654, 629, 577, 509, 338]","[0, 0.0019625398085134477, 0.0034058772731852807, 0.007183149249186924, 0.003742289904297989]","[0, 31.400636936215164, 68.11754546370561, 93.38094023943002, 243.24884377936928]","[0, 0.03228539290507903, 0.07020715944579195, 0.09413414660474664, 0.22158671458896995]",false,1440,820,320,"{browserName: BrowserName.safari, appCodeName: Mozilla, appName: Netscape, appVersion: 5.0 (Macintosh; Intel Mac OS X 10_15_7) AppleWebKit/605.1.15 (KHTML, like Gecko) Version/16.6 Safari/605.1.15, deviceMemory: null, language: da-DK, languages: [da-DK], platform: MacIntel, product: Gecko, productSub: 20030107, userAgent: Mozilla/5.0 (Macintosh; Intel Mac OS X 10_15_7) AppleWebKit/605.1.15 (KHTML, like Gecko) Version/16.6 Safari/605.1.15, vendor: Apple Computer, Inc., vendorSub: , hardwareConcurrency: 4, maxTouchPoints: 0}"
20,2023-09-28 14:24:10.518,CandyCandle,null,2023-09-28T14:22:55.628,2023-09-28T14:27:40.739,74892,205,23,female,m,experimental,printer,Target.a,cake,Target.b,null,null,motor,critical,0,2023-09-28 14:24:09.442,2023-09-28 14:24:10.518,1077,true,933000,732151,0.002078892345191889,null,714.4146639762614,698.5656733622116,0.21006122136759314,"142,159,175,192,208,225,242,271,274,309,342,554,592,624,626,654,659,687,692,722,725,755,759,790,792,820,825,847,859,880,893,913,926,947,959,982,993,1016,1026,1049,1075","[700, 690, 676, 661, 647, 635, 626, 620, 616, 612, 611, 610, 608, 607, 606, 605, 602, 598, 590, 577, 554, 525, 488, 451, 415, 378, 348, 321, 299, 282, 266, 253, 238, 222, 208, 195, 184, 176, 168, 162, 155]","[662, 648, 627, 605, 583, 566, 551, 542, 537, 530, 528, 528, 528, 527, 527, 526, 525, 523, 518, 509, 493, 474, 448, 420, 389, 356, 330, 308, 294, 283, 274, 268, 262, 257, 254, 250, 246, 242, 238, 232, 225]","[0, 0.0010120382667108973, 0.0015774286830154954, 0.0015662972889052174, 0.0016298006013006623, 0.001224038355687342, 0.001028991510855053, 0.0003729880629790334, 0.0021343747458109495, 0.00023035022137995854, 0.00006775963568181181, 0.000004716981132075472, 0.000052631578947368424, 0.000044194173824159226, 0.0005, 0.00005050762722761054, 0.0006324555320336759, 0.000159719141249985, 0.0018867962264113207, 0.0005270462766947298, 0.0093392838174146, 0.001155662388223981, 0.011305419054595013, 0.0014967880978219588, 0.023753947040439406, 0.0017706507508915058, 0.007939773296511682, 0.0015830977061152725, 0.002173067468400883, 0.0009642122253007898, 0.0014121199808219862, 0.0007158910531638177, 0.0012427303401079622, 0.0007982406959162005, 0.0011931517552730294, 0.0005913682829884975, 0.0010640636282472386, 0.00038888138739126777, 0.0008944271909999159, 0.00036892527714080736, 0.00038074980525429483]","[0, 17.204650534085253, 25.238858928247925, 26.627053911388696, 26.076809620810597, 20.808652046684813, 17.4928556845359, 10.816653826391969, 6.4031242374328485, 8.06225774829855, 2.23606797749979, 1, 2, 1.4142135623730951, 1, 1.4142135623730951, 3.1622776601683795, 4.47213595499958, 9.433981132056603, 15.811388300841896, 28.0178514522438, 34.66987164671943, 45.221676218380054, 46.400431032480725, 47.50789408087881, 49.57822102496216, 39.698866482558415, 34.828149534535996, 26.076809620810597, 20.248456731316587, 18.35755975068582, 14.317821063276353, 16.15549442140351, 16.76305461424021, 14.317821063276353, 13.601470508735444, 11.704699910719626, 8.94427190999916, 8.94427190999916, 8.48528137423857, 9.899494936611665]","[0, 0.0034869197345906004, 0.006207983168211351, 0.006617177563964003, 0.007780647772022048, 0.0054033973591081485, 0.006246253571717223, 0.0033898076526380546, 0.0013848965994525675, 0.003270836972816461, 0.0010615317562256198, 0.0008104447385688658, 0.0016254541886043645, 0.00012358800678561048, 0.000816331407361863, 0.00012270281637920147, 0.0015194566355768795, 0.0014119766023474734, 0.0019142752224288837, 0.0023572524755258416, 0.004337550238139614, 0.007189142003308725, 0.008297714591569642, 0.007132798238826544, 0.0032492147703903898, 0.0023632613762434155, 0.0034213436279648384, 0.005877653221024193, 0.0122332811312125, 0.010201413055434826, 0.013043821455613181, 0.01396910480554787, 0.01918035095963547, 0.024976081829960296, 0.026300751148573744, 0.02373184970869594, 0.020227267637332333, 0.013402739780371174, 0.014133334493279451, 0.005095064606452717, 0.006338034391084317]",false,1440,820,320,"{browserName: BrowserName.safari, appCodeName: Mozilla, appName: Netscape, appVersion: 5.0 (Macintosh; Intel Mac OS X 10_15_7) AppleWebKit/605.1.15 (KHTML, like Gecko) Version/16.6 Safari/605.1.15, deviceMemory: null, language: da-DK, languages: [da-DK], platform: MacIntel, product: Gecko, productSub: 20030107, userAgent: Mozilla/5.0 (Macintosh; Intel Mac OS X 10_15_7) AppleWebKit/605.1.15 (KHTML, like Gecko) Version/16.6 Safari/605.1.15, vendor: Apple Computer, Inc., vendorSub: , hardwareConcurrency: 4, maxTouchPoints: 0}"
21,2023-09-28 14:24:13.305,CandyCandle,null,2023-09-28T14:22:55.628,2023-09-28T14:27:40.739,77679,205,23,female,m,experimental,cake,Target.a,lightbulb,Target.b,null,null,control,control,0,2023-09-28 14:24:12.317,2023-09-28 14:24:13.305,988,true,835000,737048.619047619,0.003468066078020897,null,1050.8742589959315,718.0898272500453,0.1773000304521892,"132,185,208,228,244,246,270,278,298,318,328,349,369,379,400,418,428,449,469,479,500,519,562,615,633,655,675,694,714,729,747,749,768,770,800,820,822,849,871,873,898,914,937,939,967","[739, 739, 740, 745, 774, 795, 817, 834, 844, 852, 857, 860, 861, 863, 866, 871, 878, 884, 889, 893, 895, 896, 896, 895, 889, 873, 842, 793, 727, 650, 567, 485, 422, 374, 334, 304, 281, 263, 250, 238, 226, 215, 203, 190, 177]","[680, 658, 636, 614, 567, 545, 524, 509, 499, 492, 487, 485, 484, 483, 481, 478, 473, 468, 465, 462, 460, 460, 459, 459, 459, 459, 458, 451, 438, 422, 404, 384, 366, 349, 330, 315, 301, 288, 278, 267, 258, 251, 246, 240, 233]","[0, 0.0004150943396226415, 0.0009575093715454452, 0.0011280514172678478, 0.003451675317871019, 0.01520690632574555, 0.0012672421938121291, 0.0028339460121886585, 0.0007071067811865475, 0.0005315072906367325, 0.0007071067811865475, 0.00017169291787923758, 0.00007071067811865475, 0.00022360679774997898, 0.00017169291787923758, 0.00032394177193585005, 0.0008602325267042626, 0.0003719166512336502, 0.00029154759474226506, 0.0005, 0.00013468700594029479, 0.000052631578947368424, 0.00002325581395348837, 0.000018867924528301888, 0.0003333333333333333, 0.0007272727272727272, 0.0015508062419270824, 0.002605130246476754, 0.003363406011768428, 0.005242984730941803, 0.0047182990239081225, 0.04220189569201838, 0.0034484731054486664, 0.02546075411294803, 0.0014761059883656353, 0.0016770509831248422, 0.013462912017836259, 0.0008223556781916489, 0.0007455099757662149, 0.008139410298049854, 0.0006, 0.0008149003006503311, 0.0005652173913043478, 0.007158910531638176, 0.00052731510929405]","[0, 22, 22.02271554554524, 22.561028345356956, 55.226805085936306, 30.4138126514911, 30.4138126514911, 22.67156809750927, 14.142135623730951, 10.63014581273465, 7.0710678118654755, 3.605551275463989, 1.4142135623730951, 2.23606797749979, 3.605551275463989, 5.830951894845301, 8.602325267042627, 7.810249675906654, 5.830951894845301, 5, 2.8284271247461903, 1, 1, 1, 6, 16, 31.016124838541646, 49.49747468305833, 67.26812023536856, 78.64477096412705, 84.92938243034621, 84.40379138403677, 65.52098900352466, 50.92150822589606, 44.28317965096906, 33.54101966249684, 26.92582403567252, 22.20360331117452, 16.401219466856727, 16.278820596099706, 15, 13.038404810405298, 13, 14.317821063276353, 14.7648230602334]","[0, 0.01636190345047929, 0.017521421179482764, 0.02065953351863765, 0.05705611539703706, 0.03129302855754151, 0.03066641076036723, 0.02231792015721123, 0.01401952434137477, 0.010263003797491206, 0.006929381504731004, 0.00326237135277479, 0.0013792033913024714, 0.0018724096810464252, 0.0032408395021480546, 0.005083251956221562, 0.007772099547030966, 0.007245872249801581, 0.0049745677332596735, 0.004487893518034193, 0.0026785076615325606, 0.00045386373100624175, 0.0008836673059658007, 0.0004532880855090681, 0.002736653687047979, 0.007442266053099256, 0.014128087266834814, 0.018925661159966987, 0.025131359353589774, 0.03359622326818438, 0.04324640629510159, 0.050611078109034355, 0.04475969381721597, 0.03638233905073332, 0.028540351873293974, 0.023792750991916273, 0.01658201632228458, 0.010990210769852946, 0.007639721336190547, 0.004382066681926032, 0.008656874892657635, 0.011080465443247053, 0.018377109447073763, 0.020282025351799942, 0.019986171489812195]",false,1440,820,320,"{browserName: BrowserName.safari, appCodeName: Mozilla, appName: Netscape, appVersion: 5.0 (Macintosh; Intel Mac OS X 10_15_7) AppleWebKit/605.1.15 (KHTML, like Gecko) Version/16.6 Safari/605.1.15, deviceMemory: null, language: da-DK, languages: [da-DK], platform: MacIntel, product: Gecko, productSub: 20030107, userAgent: Mozilla/5.0 (Macintosh; Intel Mac OS X 10_15_7) AppleWebKit/605.1.15 (KHTML, like Gecko) Version/16.6 Safari/605.1.15, vendor: Apple Computer, Inc., vendorSub: , hardwareConcurrency: 4, maxTouchPoints: 0}"
22,2023-09-28 14:24:15.896,CandyCandle,null,2023-09-28T14:22:55.628,2023-09-28T14:27:40.739,80269,205,23,female,m,experimental,clown,Target.b,spoon,Target.a,null,null,phono,prime,0,2023-09-28 14:24:15.096,2023-09-28 14:24:15.896,800,true,669000,733955.5454545454,0.0019394404570631494,null,763.8466950185293,672.4678430973485,0.581648659415953,"111,128,144,162,177,194,253,274,292,310,574,607,627,650,668,688,707,722,740,756,780","[729, 729, 726, 719, 713, 709, 707, 707, 707, 707, 707, 713, 732, 785, 924, 972, 1048, 1108, 1153, 1187, 1207]","[667, 658, 637, 606, 573, 543, 506, 496, 490, 486, 485, 484, 475, 447, 369, 338, 288, 246, 218, 201, 194]","[0, 0.0005294117647058823, 0.0013258252147247767, 0.0017655831757856337, 0.0022360679774997894, 0.0017803230529907714, 0.0006280341462253866, 0.0004761904761904762, 0.0003333333333333333, 0.00022222222222222223, 0.000003787878787878788, 0.00018432613728176423, 0.001051189802081432, 0.002606158186199254, 0.008854970007129358, 0.002857008925432331, 0.0047880275433870145, 0.004882622246293481, 0.0029444444444444444, 0.0023758222260935264, 0.0008829008375173788]","[0, 9, 21.213203435596427, 31.78049716414141, 33.54101966249684, 30.265491900843113, 37.05401462729781, 10, 6, 4, 1, 6.082762530298219, 21.02379604162864, 59.941638282582836, 159.38946012832844, 57.14017850864661, 90.97252332435328, 73.23933369440222, 53, 38.01315561749642, 21.18962010041709]","[0, 0.006761535042967309, 0.014059596515444611, 0.019872583999407833, 0.023360501958664952, 0.0233813498711725, 0.032393715324338525, 0.009416030437006397, 0.005710077678406184, 0.003832016679828641, 0.0009611734507278012, 0.004895532408162028, 0.020764064752545077, 0.057970795519474816, 0.1376892820312995, 0.04528943789925523, 0.0664682487515068, 0.04971096572798286, 0.031611699911367856, 0.019122877804828995, 0.008377173651497899]",false,1440,820,320,"{browserName: BrowserName.safari, appCodeName: Mozilla, appName: Netscape, appVersion: 5.0 (Macintosh; Intel Mac OS X 10_15_7) AppleWebKit/605.1.15 (KHTML, like Gecko) Version/16.6 Safari/605.1.15, deviceMemory: null, language: da-DK, languages: [da-DK], platform: MacIntel, product: Gecko, productSub: 20030107, userAgent: Mozilla/5.0 (Macintosh; Intel Mac OS X 10_15_7) AppleWebKit/605.1.15 (KHTML, like Gecko) Version/16.6 Safari/605.1.15, vendor: Apple Computer, Inc., vendorSub: , hardwareConcurrency: 4, maxTouchPoints: 0}"
23,2023-09-28 14:24:18.456,CandyCandle,null,2023-09-28T14:22:55.628,2023-09-28T14:27:40.739,82829,205,23,female,m,experimental,clown,Target.b,gift,Target.a,null,null,phono,prime,0,2023-09-28 14:24:17.889,2023-09-28 14:24:18.456,567,true,448000,721522.7391304348,0.0015879613303646607,null,690.2855170880335,681.5607089614248,0.5900873126775894,"96,113,130,146,185,213,243,283,292,313,345,373,376,402,409,430,443,464,495,518,544","[703, 707, 723, 764, 822, 872, 1004, 1038, 1052, 1065, 1078, 1110, 1124, 1135, 1144, 1151, 1156, 1164, 1175, 1191, 1205]","[662, 655, 634, 584, 514, 456, 321, 304, 298, 292, 284, 263, 254, 248, 243, 240, 237, 232, 223, 211, 201]","[0, 0.0004742504557822676, 0.0015529857391110688, 0.004041290790081802, 0.0023309370620232845, 0.002734884245582378, 0.006293647591023826, 0.0009503288904374106, 0.001692394023525313, 0.0006818010030131597, 0.0004770105475773046, 0.0013669756577860456, 0.005547772325697746, 0.00048192169562083335, 0.0014708043058552858, 0.00036265586218399567, 0.00044853476114194624, 0.0004492371967646002, 0.0004584732388242547, 0.0008695652173913044, 0.0006617173282340482]","[0, 8.06225774829855, 26.40075756488817, 64.66065264130884, 90.9065454189081, 76.57675887630658, 188.80942773071476, 38.01315561749642, 15.231546211727817, 14.317821063276353, 15.264337522473747, 38.27531841800928, 16.64331697709324, 12.529964086141668, 10.295630140987, 7.615773105863909, 5.830951894845301, 9.433981132056603, 14.212670403551895, 20, 17.204650534085253]","[0, 0.00813301202431571, 0.027331439900751195, 0.06725384191291466, 0.09383427747294984, 0.07699056609682133, 0.17237747938135967, 0.024546368483701987, 0.008865219881893099, 0.008436137239457575, 0.010004556538436786, 0.024950927941153424, 0.010400996758151954, 0.00712453173588566, 0.0058194505501605025, 0.0037328998198923467, 0.003353655632311717, 0.0054805786979677295, 0.009178035633621169, 0.012213888787753176, 0.010059448188106064]",false,1440,820,320,"{browserName: BrowserName.safari, appCodeName: Mozilla, appName: Netscape, appVersion: 5.0 (Macintosh; Intel Mac OS X 10_15_7) AppleWebKit/605.1.15 (KHTML, like Gecko) Version/16.6 Safari/605.1.15, deviceMemory: null, language: da-DK, languages: [da-DK], platform: MacIntel, product: Gecko, productSub: 20030107, userAgent: Mozilla/5.0 (Macintosh; Intel Mac OS X 10_15_7) AppleWebKit/605.1.15 (KHTML, like Gecko) Version/16.6 Safari/605.1.15, vendor: Apple Computer, Inc., vendorSub: , hardwareConcurrency: 4, maxTouchPoints: 0}"
24,2023-09-28 14:24:20.794,CandyCandle,null,2023-09-28T14:22:55.628,2023-09-28T14:27:40.739,85167,205,23,female,m,experimental,clown,Target.b,book,Target.a,null,null,phono,prime,0,2023-09-28 14:24:20.232,2023-09-28 14:24:20.794,561,true,416000,708792.6666666666,0.001685420472506361,null,707.3348224653811,703.5055081518552,0.5861788426070363,"127,168,190,211,232,253,273,290,312,332,343,363,382,393,412,434,444,463,484,493,512,532,543","[712, 724, 746, 775, 853, 897, 934, 966, 995, 1070, 1090, 1105, 1123, 1137, 1148, 1160, 1173, 1188, 1205, 1219, 1229, 1238, 1246]","[678, 665, 644, 618, 554, 519, 489, 462, 436, 365, 344, 327, 307, 291, 279, 267, 257, 248, 239, 232, 228, 224, 220]","[0, 0.00043150746373058857, 0.0013824460296132319, 0.0018546992470619473, 0.00480457076404931, 0.002677274818451542, 0.0023817010727629107, 0.0024628731077009787, 0.0017703947358318588, 0.005163816418115578, 0.0026363636363636363, 0.0011335784048754633, 0.0014161709523235484, 0.0019327537841335727, 0.0008567800313736688, 0.00077138921583987, 0.0016401219466856726, 0.0009206766149755737, 0.0009159706696033973, 0.0017391639824998364, 0.0005668594533825794, 0.0004924428900898052, 0.0008131156281817418]","[0, 17.69180601295413, 30.4138126514911, 38.948684188300895, 100.89598604503551, 56.22277118748239, 47.634021455258214, 41.86884283091664, 38.948684188300895, 103.27632836231156, 29, 22.67156809750927, 26.90724809414742, 21.2602916254693, 16.278820596099706, 16.97056274847714, 16.401219466856727, 17.4928556845359, 19.235384061671343, 15.652475842498529, 10.770329614269007, 9.848857801796104, 8.94427190999916]","[0, 0.017995528113453306, 0.030798920814805956, 0.038982763368638644, 0.09716112587378872, 0.05147221157463977, 0.04221881956658622, 0.036207690066055176, 0.03311530559779018, 0.08424679594364125, 0.023040214881772544, 0.01798675806144942, 0.020861743446195, 0.016296460567811123, 0.012149005728360009, 0.012177131544222319, 0.010543939015909397, 0.009889470758766313, 0.009999586201669183, 0.007728421651308698, 0.004639413486898812, 0.004430923059190712, 0.004236613284170526]",false,1440,820,320,"{browserName: BrowserName.safari, appCodeName: Mozilla, appName: Netscape, appVersion: 5.0 (Macintosh; Intel Mac OS X 10_15_7) AppleWebKit/605.1.15 (KHTML, like Gecko) Version/16.6 Safari/605.1.15, deviceMemory: null, language: da-DK, languages: [da-DK], platform: MacIntel, product: Gecko, productSub: 20030107, userAgent: Mozilla/5.0 (Macintosh; Intel Mac OS X 10_15_7) AppleWebKit/605.1.15 (KHTML, like Gecko) Version/16.6 Safari/605.1.15, vendor: Apple Computer, Inc., vendorSub: , hardwareConcurrency: 4, maxTouchPoints: 0}"
25,2023-09-28 14:24:23.477,CandyCandle,null,2023-09-28T14:22:55.628,2023-09-28T14:27:40.739,87850,205,23,female,m,experimental,cloud,Target.a,trophy,Target.b,null,null,phono,critical,0,2023-09-28 14:24:22.664,2023-09-28 14:24:23.477,812,true,701000,708481,0.0034367363713341727,null,1121.123796500808,658.3259071311109,0.09401033857186414,"94,111,128,160,162,178,195,227,229,246,262,280,298,312,329,547,561,579,597,601,629,646,661,678,694,712,729,745,762,777,795","[714, 721, 747, 791, 837, 872, 904, 928, 943, 954, 960, 964, 965, 965, 966, 965, 962, 950, 922, 897, 857, 789, 709, 629, 554, 476, 417, 369, 322, 281, 246]","[647, 632, 594, 535, 484, 451, 424, 404, 393, 386, 381, 378, 378, 377, 377, 377, 377, 377, 375, 373, 364, 348, 323, 294, 269, 245, 230, 218, 206, 195, 184]","[0, 0.000973702668073344, 0.0027084386901697266, 0.0023000084918321497, 0.03434020966738555, 0.0030065033677014233, 0.0024628731077009787, 0.0009762812094883317, 0.009300537618869138, 0.0007669649888473705, 0.00048814060474416585, 0.0002777777777777778, 0.00005555555555555556, 0.00007142857142857143, 0.00005882352941176471, 0.000004587155963302752, 0.00021428571428571427, 0.0006666666666666666, 0.0015595187608464665, 0.006269968101992227, 0.0014642857142857142, 0.004109235105075995, 0.005587684871413403, 0.005005533270471719, 0.004941058844013093, 0.004533823502911815, 0.00358099558946457, 0.003092329219213245, 0.0028533959613258595, 0.0028299980369054832, 0.002038215147538238]","[0, 16.55294535724685, 46.04345773288535, 73.60027173862879, 68.6804193347711, 48.104053883222775, 41.86884283091664, 31.240998703626616, 18.601075237738275, 13.038404810405298, 7.810249675906654, 5, 1, 1, 1, 1, 3, 12, 28.071337695236398, 25.079872407968907, 41, 69.85699678629192, 83.81527307120105, 85.09406559801923, 79.05694150420949, 81.60882305241266, 60.876925020897694, 49.47726750741192, 48.507731342539614, 42.44997055358225, 36.68787265568828]","[0, 0.016496319849666208, 0.047917602276215485, 0.07711271772289216, 0.07040516116511662, 0.046963379707865245, 0.038750918229471146, 0.02796318657710614, 0.015733664004751458, 0.010390372940099228, 0.006666530272887686, 0.004117950500520296, 0.00035223603204202845, 0.000898735102440133, 0.00035091996372180445, 0.00035091996372180445, 0.001056555719694851, 0.004283947055312243, 0.008508801554857478, 0.00778857960534252, 0.007569775178128876, 0.013750231013277592, 0.012078810581897264, 0.009758935031222857, 0.014792443154087788, 0.023314312885948013, 0.028696180353088713, 0.029577721596191358, 0.03552003341012373, 0.03751721307947689, 0.03554489559043887]",false,1440,820,320,"{browserName: BrowserName.safari, appCodeName: Mozilla, appName: Netscape, appVersion: 5.0 (Macintosh; Intel Mac OS X 10_15_7) AppleWebKit/605.1.15 (KHTML, like Gecko) Version/16.6 Safari/605.1.15, deviceMemory: null, language: da-DK, languages: [da-DK], platform: MacIntel, product: Gecko, productSub: 20030107, userAgent: Mozilla/5.0 (Macintosh; Intel Mac OS X 10_15_7) AppleWebKit/605.1.15 (KHTML, like Gecko) Version/16.6 Safari/605.1.15, vendor: Apple Computer, Inc., vendorSub: , hardwareConcurrency: 4, maxTouchPoints: 0}"
26,2023-09-28 14:24:26.216,CandyCandle,null,2023-09-28T14:22:55.628,2023-09-28T14:27:40.739,90590,205,23,female,m,experimental,banana,Target.b,barrel,Target.a,null,null,control,control,0,2023-09-28 14:24:25.435,2023-09-28 14:24:26.216,781,true,651000,706270.2307692308,0.002950805818098434,null,675.0866123181358,667.7619336260491,0.5724758541868972,"128,146,162,179,209,231,252,271,272,293,295,323,344,346,372,391,412,544,546,571,590,610,612,638,657,675,677,705,725,727,757,779","[727, 730, 737, 749, 760, 773, 788, 798, 806, 812, 817, 820, 823, 825, 826, 827, 828, 829, 833, 844, 868, 902, 943, 1029, 1105, 1135, 1163, 1182, 1193, 1201, 1208, 1212]","[666, 659, 644, 624, 605, 587, 568, 557, 549, 543, 538, 535, 533, 530, 529, 527, 526, 525, 521, 509, 483, 450, 412, 339, 276, 255, 237, 225, 218, 214, 209, 207]","[0, 0.00042309850588132826, 0.001034559084827928, 0.0013719886811400708, 0.0007318166133366716, 0.0010092546959624782, 0.0011527350892295432, 0.0007824246709115003, 0.011313708498984762, 0.00040406101782088425, 0.0035355339059327377, 0.0001515228816828316, 0.00017169291787923758, 0.0018027756377319946, 0.00005439282932204212, 0.00011768778828946262, 0.00006734350297014739, 0.000010713739108887084, 0.0028284271247461905, 0.0006511528238439883, 0.0018622953697846455, 0.0023690715480964267, 0.02795084971874737, 0.00433865929718403, 0.0051956192926151746, 0.002034425935955617, 0.016643316977093238, 0.000802578751937294, 0.0006519202405202649, 0.00447213595499958, 0.00028674417556808754, 0.00020327890704543544]","[0, 7.615773105863909, 16.55294535724685, 23.323807579381203, 21.95449840010015, 22.20360331117452, 24.20743687382041, 14.866068747318506, 11.313708498984761, 8.48528137423857, 7.0710678118654755, 4.242640687119285, 3.605551275463989, 3.605551275463989, 1.4142135623730951, 2.23606797749979, 1.4142135623730951, 1.4142135623730951, 5.656854249492381, 16.278820596099706, 35.38361202590826, 47.38143096192854, 55.90169943749474, 112.80514172678478, 98.71676655968832, 36.61966684720111, 33.28663395418648, 22.47220505424423, 13.038404810405298, 8.94427190999916, 8.602325267042627, 4.47213595499958]","[0, 0.0073090393592147454, 0.01616952060074828, 0.023550242389588548, 0.022277567850854493, 0.022852648526023048, 0.02491898200805429, 0.015178690321495138, 0.011422281973635061, 0.00853451798545585, 0.007090127732667596, 0.00424420851765105, 0.0033801426451880957, 0.0036766643314728874, 0.0014087865750534317, 0.0022674189350968222, 0.0014075449300508173, 0.0014066617078849143, 0.005617720303602367, 0.01624142866496215, 0.03489857919525542, 0.04502266919487404, 0.0508506351376469, 0.09366172089952828, 0.07348222580919408, 0.023765771957923218, 0.01996923821528466, 0.012925832139653596, 0.007366353047474334, 0.004404325856844901, 0.005016895003105521, 0.0021574123713096077]",false,1440,820,320,"{browserName: BrowserName.safari, appCodeName: Mozilla, appName: Netscape, appVersion: 5.0 (Macintosh; Intel Mac OS X 10_15_7) AppleWebKit/605.1.15 (KHTML, like Gecko) Version/16.6 Safari/605.1.15, deviceMemory: null, language: da-DK, languages: [da-DK], platform: MacIntel, product: Gecko, productSub: 20030107, userAgent: Mozilla/5.0 (Macintosh; Intel Mac OS X 10_15_7) AppleWebKit/605.1.15 (KHTML, like Gecko) Version/16.6 Safari/605.1.15, vendor: Apple Computer, Inc., vendorSub: , hardwareConcurrency: 4, maxTouchPoints: 0}"
27,2023-09-28 14:24:29.781,CandyCandle,null,2023-09-28T14:22:55.628,2023-09-28T14:27:40.739,94155,205,23,female,m,experimental,camera,Target.a,monkey,Target.b,null,null,motor,prime,0,2023-09-28 14:24:28.114,2023-09-28 14:24:29.781,1668,true,1536000,737001,0.0013678486217105002,null,782.9407802758252,672.8513951832158,0.12716498742777999,"130,149,165,181,199,215,232,248,264,282,298,332,519,694,712,717,733,748,766,805,833,867,890,912,952,1026,1122,1183,1215,1217,1246,1248,1279,1298,1300,1326,1343,1361,1365,1394,1409,1427,1431,1463,1488,1514,1537,1565,1586,1607,1628,1644,1666","[709, 712, 715, 720, 724, 728, 731, 734, 736, 738, 739, 739, 739, 739, 739, 739, 739, 739, 741, 748, 753, 755, 756, 757, 757, 757, 756, 756, 757, 758, 759, 759, 758, 749, 726, 686, 633, 577, 524, 471, 426, 388, 356, 334, 301, 288, 262, 249, 238, 217, 207, 198, 189]","[651, 649, 647, 643, 639, 636, 634, 631, 630, 628, 628, 627, 626, 625, 624, 622, 620, 614, 606, 585, 570, 565, 562, 560, 559, 558, 557, 556, 555, 553, 551, 549, 547, 538, 521, 493, 456, 417, 379, 347, 328, 314, 302, 291, 275, 269, 261, 258, 254, 244, 238, 231, 224]","[0, 0.00018976585660336785, 0.00022534695471649932, 0.000400195264839553, 0.00031426968052735446, 0.0003125, 0.0002120912514978817, 0.0002651650429449553, 0.00013975424859373687, 0.00015713484026367723, 0.0000625, 0.000029411764705882354, 0.000005347593582887701, 0.0000057142857142857145, 0.00005555555555555556, 0.0004, 0.000125, 0.0004, 0.0004581228472908512, 0.0005675882979789399, 0.000564692439315782, 0.00015838720020983833, 0.0001374903330507991, 0.00010163945352271772, 0.000025, 0.000013513513513513513, 0.00001473139127471974, 0.00001639344262295082, 0.000044194173824159226, 0.001118033988749895, 0.00007710579232757895, 0.001, 0.00007213122508063838, 0.0006698906348083082, 0.014300349646075091, 0.0018779316331898003, 0.003802202967339367, 0.003791234204071737, 0.01630375723568037, 0.0021348698885743597, 0.0032564465978186167, 0.002249828525701843, 0.00854400374531753, 0.0007686483672655527, 0.0014669696656713798, 0.000550685425510629, 0.001182736565976995, 0.00047648800229022623, 0.0005573666624152202, 0.001107590795201239, 0.0005553287518900287, 0.0007126096406869612, 0.0005182615568632445]","[0, 3.605551275463989, 3.605551275463989, 6.4031242374328485, 5.656854249492381, 5, 3.605551275463989, 4.242640687119285, 2.23606797749979, 2.8284271247461903, 1, 1, 1, 1, 1, 2, 2, 6, 8.246211251235321, 22.135943621178654, 15.811388300841896, 5.385164807134504, 3.1622776601683795, 2.23606797749979, 1, 1, 1.4142135623730951, 1, 1.4142135623730951, 2.23606797749979, 2.23606797749979, 2, 2.23606797749979, 12.727922061357855, 28.600699292150182, 48.82622246293481, 64.63745044476924, 68.24221567329127, 65.21502894272147, 61.91122676865643, 48.84669896727925, 40.496913462633174, 34.17601498127012, 24.596747752497688, 36.6742416417845, 14.317821063276353, 27.202941017470888, 13.341664064126334, 11.704699910719626, 23.259406699226016, 11.661903789690601, 11.40175425099138, 11.40175425099138]","[0, 0.0036352417815645093, 0.0036286834143364455, 0.00654788932819066, 0.005848733457033655, 0.005064896762779048, 0.003596337682028231, 0.004372132105685248, 0.0021284867734208237, 0.002910064984563022, 0.000668251359009028, 0.0007862729355558638, 0.0007873233954959511, 0.000788374983842415, 0.0007894276984766623, 0.0015820180348481026, 0.0015862423523235352, 0.004784162048993302, 0.007763388641900273, 0.02178735233531304, 0.015773303827338592, 0.005507683777014817, 0.0031858139903152534, 0.002338182820983918, 0.0008543157808382394, 0.0008553950529921531, 0.00022534304995080445, 0.0008578935469729152, 0.0014894320966899694, 0.0023492072902391724, 0.0023510652400056515, 0.0017277863022521027, 0.0011066376639061455, 0.0022029411203408323, 0.00043564151815199886, 0.0006782453066110531, 0.0011334560562662, 0.0015286460915976, 0.00038011166958647126, 0.00877284090624209, 0.021194935450117015, 0.024223678914760568, 0.023141869755281333, 0.013191617213454613, 0.023583484509015307, 0.011010179802672247, 0.03218604583248884, 0.019661658615510648, 0.014759253225519894, 0.025992630939686633, 0.011049059529072579, 0.007221332519000911, 0.007771864243228999]",false,1440,820,320,"{browserName: BrowserName.safari, appCodeName: Mozilla, appName: Netscape, appVersion: 5.0 (Macintosh; Intel Mac OS X 10_15_7) AppleWebKit/605.1.15 (KHTML, like Gecko) Version/16.6 Safari/605.1.15, deviceMemory: null, language: da-DK, languages: [da-DK], platform: MacIntel, product: Gecko, productSub: 20030107, userAgent: Mozilla/5.0 (Macintosh; Intel Mac OS X 10_15_7) AppleWebKit/605.1.15 (KHTML, like Gecko) Version/16.6 Safari/605.1.15, vendor: Apple Computer, Inc., vendorSub: , hardwareConcurrency: 4, maxTouchPoints: 0}"
28,2023-09-28 14:24:32.088,CandyCandle,null,2023-09-28T14:22:55.628,2023-09-28T14:27:40.739,96462,205,23,female,m,experimental,camera,Target.a,cookie,Target.b,null,null,motor,prime,0,2023-09-28 14:24:31.676,2023-09-28 14:24:32.088,413,true,286000,720893.8571428572,0.002412630569076289,null,681.3199818097215,673.167141206402,0.08861707234980806,"111,128,145,162,179,196,245,270,278,297,312,331,346,366,379,397","[704, 697, 682, 662, 638, 608, 577, 461, 425, 387, 350, 321, 292, 266, 246, 229]","[655, 647, 634, 617, 595, 563, 527, 376, 332, 289, 250, 224, 205, 192, 184, 178]","[0, 0.0006253026948667441, 0.0011676137200752475, 0.0015440476174596103, 0.0019151553642470242, 0.0025802014352307424, 0.0009695488587934452, 0.007616508386393335, 0.007106335201775948, 0.0030202456285060154, 0.003583914681524163, 0.0020499307467526785, 0.002311324776447962, 0.0014534441853748634, 0.0016569737868106166, 0.0010015420209622192]","[0, 10.63014581273465, 19.849433241279208, 26.248809496813376, 32.55764119219941, 43.86342439892262, 47.50789408087881, 190.41270965983338, 56.85068161420758, 57.38466694161429, 53.75872022286245, 38.948684188300895, 34.66987164671943, 29.068883707497267, 21.540659228538015, 18.027756377319946]","[0, 0.0011449212196852424, 0.0007272298932092091, 0.001288772246425266, 0.0003090677073491557, 0.0035496310262096036, 0.006849133922689914, 0.055947275643086394, 0.021034629767711078, 0.02172661222886424, 0.021181232393977616, 0.010988568682730897, 0.002842772968276278, 0.013106775568097306, 0.016988560359346153, 0.01854175379200103]",false,1440,820,320,"{browserName: BrowserName.safari, appCodeName: Mozilla, appName: Netscape, appVersion: 5.0 (Macintosh; Intel Mac OS X 10_15_7) AppleWebKit/605.1.15 (KHTML, like Gecko) Version/16.6 Safari/605.1.15, deviceMemory: null, language: da-DK, languages: [da-DK], platform: MacIntel, product: Gecko, productSub: 20030107, userAgent: Mozilla/5.0 (Macintosh; Intel Mac OS X 10_15_7) AppleWebKit/605.1.15 (KHTML, like Gecko) Version/16.6 Safari/605.1.15, vendor: Apple Computer, Inc., vendorSub: , hardwareConcurrency: 4, maxTouchPoints: 0}"
29,2023-09-28 14:24:34.677,CandyCandle,null,2023-09-28T14:22:55.628,2023-09-28T14:27:40.739,99051,205,23,female,m,experimental,camera,Target.a,shoe,Target.b,null,null,motor,prime,0,2023-09-28 14:24:33.998,2023-09-28 14:24:34.677,679,true,498000,713207.8965517242,0.0012748247798317362,null,664.1130276502955,654.5418244848835,0.006776569923154905,"160,178,193,209,227,243,283,311,346,380,412,445,478,510,543,568,594,616,636,658","[722, 711, 692, 672, 648, 615, 534, 454, 407, 377, 359, 343, 327, 310, 301, 292, 284, 265, 253, 242]","[674, 666, 652, 636, 622, 606, 557, 489, 445, 416, 397, 377, 354, 331, 317, 303, 289, 261, 245, 229]","[0, 0.0007556372504853024, 0.0015733898294941263, 0.001600781059358212, 0.0015436048877166448, 0.002292140102611531, 0.002366696009207773, 0.0037498299281161964, 0.0018394764117508427, 0.0012272144732367687, 0.0008178907705189, 0.0007761362712039817, 0.0008490258015831455, 0.0008937718528796932, 0.0005043429386997952, 0.0006657326790837295, 0.0006201736729460422, 0.0015380840286989665, 0.001, 0.0008825676290430727]","[0, 13.601470508735444, 23.600847442411894, 25.612496949731394, 27.784887978899608, 36.6742416417845, 94.66784036831093, 104.9952379872535, 64.38167441127949, 41.72529209005013, 26.1725046566048, 25.612496949731394, 28.0178514522438, 28.600699292150182, 16.64331697709324, 16.64331697709324, 16.1245154965971, 33.83784863137726, 20, 19.4164878389476]","[0, 0.0017023011411573233, 0.002914990383269331, 0.0022371327331597527, 0.0070464077637471005, 0.013098707639592465, 0.028449328134764904, 0.01602010529856308, 0.007472840617375035, 0.004569334247443978, 0.0010815483560115706, 0.0030351145411072274, 0.007560345977086429, 0.006877225201848473, 0.006865411688342628, 0.007398896204445099, 0.009759507133846282, 0.016330198179113225, 0.008458459239067743, 0.011530968227089291]",false,1440,820,320,"{browserName: BrowserName.safari, appCodeName: Mozilla, appName: Netscape, appVersion: 5.0 (Macintosh; Intel Mac OS X 10_15_7) AppleWebKit/605.1.15 (KHTML, like Gecko) Version/16.6 Safari/605.1.15, deviceMemory: null, language: da-DK, languages: [da-DK], platform: MacIntel, product: Gecko, productSub: 20030107, userAgent: Mozilla/5.0 (Macintosh; Intel Mac OS X 10_15_7) AppleWebKit/605.1.15 (KHTML, like Gecko) Version/16.6 Safari/605.1.15, vendor: Apple Computer, Inc., vendorSub: , hardwareConcurrency: 4, maxTouchPoints: 0}"
30,2023-09-28 14:24:37.243,CandyCandle,null,2023-09-28T14:22:55.628,2023-09-28T14:27:40.739,101617,205,23,female,m,experimental,cat,Target.b,trophy,Target.a,null,null,motor,critical,0,2023-09-28 14:24:36.634,2023-09-28 14:24:37.243,609,true,482000,705501,0.007172403528651108,null,634.8966326681269,628.6660480732198,0.5452766446826541,"124,155,217,253,273,295,337,340,363,384,388,418,433,452,456,486,509,510,535,558,559,585,606","[752, 752, 769, 775, 787, 800, 807, 810, 814, 818, 822, 827, 832, 839, 849, 866, 893, 927, 977, 1048, 1116, 1159, 1191]","[668, 663, 627, 616, 600, 585, 580, 577, 574, 570, 566, 563, 558, 551, 539, 521, 493, 457, 404, 333, 274, 240, 218]","[0, 0.00016129032258064516, 0.0006421299753998187, 0.00034805455794837965, 0.001, 0.0009022469655126913, 0.00020481726826291968, 0.001414213562373095, 0.0002173913043478261, 0.00026937401188058957, 0.0014142135623730952, 0.00019436506316151, 0.0004714045207910317, 0.0005210260492953509, 0.003905124837953327, 0.0008252945602093298, 0.0016911869859805846, 0.04951767361255979, 0.002914515397111499, 0.004365615779499554, 0.09002777349240623, 0.0021083800113331917, 0.0018491893179950094]","[0, 5, 39.81205847478876, 12.529964086141668, 20, 19.849433241279208, 8.602325267042627, 4.242640687119285, 5, 5.656854249492381, 5.656854249492381, 5.830951894845301, 7.0710678118654755, 9.899494936611665, 15.620499351813308, 24.758836806279895, 38.897300677553446, 49.51767361255979, 72.86288492778748, 100.40916292848975, 90.02777349240623, 54.817880294662984, 38.8329756778952]","[0, 0.0037287061870770084, 0.03855575722376184, 0.012441745377508986, 0.020202962824925022, 0.019990198339743092, 0.008218923469261417, 0.0042101073683947715, 0.004783222719414446, 0.00559089953943018, 0.005579751865214648, 0.0053041611753072, 0.006934507858737314, 0.009676417957584874, 0.015433234089498765, 0.024054144003749913, 0.03717499782062494, 0.04640995399408282, 0.06592335550391368, 0.08444016373163778, 0.0669013808305634, 0.03656833909274763, 0.023153713709522433]",false,1440,820,320,"{browserName: BrowserName.safari, appCodeName: Mozilla, appName: Netscape, appVersion: 5.0 (Macintosh; Intel Mac OS X 10_15_7) AppleWebKit/605.1.15 (KHTML, like Gecko) Version/16.6 Safari/605.1.15, deviceMemory: null, language: da-DK, languages: [da-DK], platform: MacIntel, product: Gecko, productSub: 20030107, userAgent: Mozilla/5.0 (Macintosh; Intel Mac OS X 10_15_7) AppleWebKit/605.1.15 (KHTML, like Gecko) Version/16.6 Safari/605.1.15, vendor: Apple Computer, Inc., vendorSub: , hardwareConcurrency: 4, maxTouchPoints: 0}"
31,2023-09-28 14:24:40.783,CandyCandle,null,2023-09-28T14:22:55.628,2023-09-28T14:27:40.739,105157,205,23,female,m,experimental,pear,Target.b,cactus,Target.a,null,null,control,control,0,2023-09-28 14:24:39.474,2023-09-28 14:24:40.783,1309,true,1162000,720226.8064516129,0.0009171029548907213,null,715.978767561635,679.8683696128244,0.5703482233616,"130,149,164,180,198,214,230,247,278,312,344,547,697,702,734,736,742,759,775,794,808,859,879,892,909,925,958,977,1009,1033,1059,1093,1117,1142,1166,1175,1191,1211,1231,1241,1258,1282,1292","[718, 718, 718, 719, 723, 729, 737, 742, 751, 753, 754, 754, 757, 765, 777, 789, 795, 800, 806, 808, 809, 808, 807, 805, 804, 803, 803, 803, 808, 831, 1040, 1106, 1151, 1200, 1216, 1219, 1221, 1224, 1225, 1226, 1227, 1229, 1232]","[666, 661, 647, 627, 610, 597, 585, 576, 566, 563, 563, 562, 560, 554, 545, 537, 532, 528, 525, 523, 522, 522, 522, 521, 521, 520, 519, 517, 512, 496, 350, 301, 266, 233, 228, 227, 227, 227, 226, 225, 225, 224, 221]","[0, 0.0002631578947368421, 0.0009333333333333333, 0.0012515615246562993, 0.0009702360664762766, 0.000894863816454772, 0.0009013878188659973, 0.000605625302411, 0.0004339878724862487, 0.00010604562574894086, 0.00003125, 0.000004926108374384236, 0.00002403700850309326, 0.002, 0.00046875, 0.007211102550927978, 0.0013017082793177757, 0.0003766543669078146, 0.0004192627457812106, 0.0001488645855129574, 0.00010101525445522108, 0.000019607843137254903, 0.00005, 0.00017200522903844536, 0.00005882352941176471, 0.00008838834764831845, 0.000030303030303030302, 0.00010526315789473685, 0.0002209708691207961, 0.001167410477176825, 0.00980558046644989, 0.0024176756832425973, 0.0023753654689565376, 0.002363048878038709, 0.0006984606089266755, 0.00035136418446315325, 0.000125, 0.00015, 0.00007071067811865475, 0.0001414213562373095, 0.00005882352941176471, 0.00009316949906249125, 0.0004242640687119285]","[0, 5, 14, 20.024984394500787, 17.46424919657298, 14.317821063276353, 14.422205101855956, 10.295630140987, 13.45362404707371, 3.605551275463989, 1, 1, 3.605551275463989, 10, 15, 14.422205101855956, 7.810249675906654, 6.4031242374328485, 6.708203932499369, 2.8284271247461903, 1.4142135623730951, 1, 1, 2.23606797749979, 1, 1.4142135623730951, 1, 2, 7.0710678118654755, 28.0178514522438, 254.94509212769717, 82.20097323024831, 57.0087712549569, 59.07622195096772, 16.76305461424021, 3.1622776601683795, 2, 3, 1.4142135623730951, 1.4142135623730951, 1, 2.23606797749979, 4.242640687119285]","[0, 0.003756194733122199, 0.010657034952495871, 0.01627670643105329, 0.01632447872937357, 0.01465161963462809, 0.01525400616917654, 0.01081407107500292, 0.014268927750735103, 0.0038284695454746135, 0.0006363515284060818, 0.0008520522911899738, 0.003606994197900732, 0.01014419660431511, 0.015097002615722806, 0.014082922824938542, 0.00785030847807923, 0.006369229475526625, 0.006038972139935985, 0.002875271692580072, 0.001436312381085274, 0.0005636198919420364, 0.0005646050409221823, 0.00025716228965326027, 0.000567129707620722, 0.000308772624728039, 0.0008778937909784902, 0.001758780049389662, 0.007224611802338646, 0.026689144243097134, 0.21348337440105192, 0.05891596023653797, 0.03860034376549059, 0.03533574147345328, 0.006432395327968212, 0.0012385428393991563, 0.00029481896992090745, 0.0004404821605937302, 0.0009357049752598465, 0.0009345009193915754, 0.00014470132492863582, 0.0010761150195722745, 0.0027877331162700085]",false,1440,820,320,"{browserName: BrowserName.safari, appCodeName: Mozilla, appName: Netscape, appVersion: 5.0 (Macintosh; Intel Mac OS X 10_15_7) AppleWebKit/605.1.15 (KHTML, like Gecko) Version/16.6 Safari/605.1.15, deviceMemory: null, language: da-DK, languages: [da-DK], platform: MacIntel, product: Gecko, productSub: 20030107, userAgent: Mozilla/5.0 (Macintosh; Intel Mac OS X 10_15_7) AppleWebKit/605.1.15 (KHTML, like Gecko) Version/16.6 Safari/605.1.15, vendor: Apple Computer, Inc., vendorSub: , hardwareConcurrency: 4, maxTouchPoints: 0}"
